Time (s),Gyroscope X (deg/s),Gyroscope Y (deg/s),Gyroscope Z (deg/s),Accelerometer X (g),Accelerometer Y (g),Accelerometer Z (g)
0.00020694732666015625,0.0,0.0,0.0,-0.5749872579001019,0.03384620285423037,0.8039468654434251
0.004240751266479492,0.0,0.0,0.0,-0.5749872579001019,0.03384620285423037,0.8039468654434251
0.008909940719604492,0.0,0.0,0.0,-0.5749872579001019,0.03384620285423037,0.8039468654434251
0.012845039367675781,0.0,0.0,0.0,-0.5749872579001019,0.03384620285423037,0.8039468654434251
0.01752924919128418,0.0,0.0,0.0,-0.5749872579001019,0.03384620285423037,0.8039468654434251
0.021969318389892578,0.0,0.0,0.0,-0.5749872579001019,0.03384620285423037,0.8039468654434251
0.026415348052978516,0.0,0.0,0.0,-0.5749872579001019,0.03384620285423037,0.8039468654434251
0.02980208396911621,0.0,0.0,0.0,-0.5749872579001019,0.03384620285423037,0.8039468654434251
0.034828901290893555,0.0,-0.11190581936148891,0.0,-0.5749872579001019,0.03384620285423037,0.8039468654434251
0.04138827323913574,0.0,-0.11190581936148891,0.0,-0.5749872579001019,0.03384620285423037,0.8039468654434251
0.04436612129211426,0.0,-0.11190581936148891,0.0,-0.5749872579001019,0.03384620285423037,0.8039468654434251
0.048738718032836914,0.0,-0.11190581936148891,0.0,-0.5749872579001019,0.03384620285423037,0.8039468654434251
0.05266308784484863,0.0,-0.11190581936148891,0.0,-0.5749872579001019,0.03384620285423037,0.8039468654434251
0.057282209396362305,0.0,-0.11190581936148891,0.0,-0.5749872579001019,0.03384620285423037,0.8039468654434251
0.0619349479675293,0.0,-0.11190581936148891,0.0,-0.5789691641182466,0.03384620285423037,0.8039468654434251
0.06960558891296387,0.0,-0.11190581936148891,0.0,-0.5789691641182466,0.03384620285423037,0.8039468654434251
0.07280230522155762,0.0,-0.11190581936148891,0.0,-0.5789691641182466,0.03384620285423037,0.8039468654434251
0.07690930366516113,0.0,-0.11190581936148891,0.0,-0.5789691641182466,0.03384620285423037,0.8039468654434251
0.08131718635559082,0.0,-0.11190581936148891,0.0,-0.5789691641182466,0.03384620285423037,0.8039468654434251
0.08807659149169922,0.11190581936148891,-0.11190581936148891,0.11190581936148891,-0.5789691641182466,0.03384620285423037,0.8039468654434251
0.09217143058776855,0.11190581936148891,-0.11190581936148891,0.11190581936148891,-0.5749872579001019,0.03384620285423037,0.8039468654434251
0.09695863723754883,0.11190581936148891,-0.11190581936148891,0.11190581936148891,-0.5749872579001019,0.03384620285423037,0.8039468654434251
0.10122299194335938,0.11190581936148891,-0.11190581936148891,0.11190581936148891,-0.5749872579001019,0.03384620285423037,0.8039468654434251
0.10425519943237305,0.11190581936148891,-0.11190581936148891,0.11190581936148891,-0.5749872579001019,0.03384620285423037,0.8039468654434251
0.1086266040802002,0.11190581936148891,-0.11190581936148891,0.11190581936148891,-0.5749872579001019,0.03384620285423037,0.8039468654434251
0.11282849311828613,0.11190581936148891,-0.11190581936148891,0.11190581936148891,-0.5749872579001019,0.03384620285423037,0.8039468654434251
0.11753559112548828,0.11190581936148891,-0.11190581936148891,0.11190581936148891,-0.5749872579001019,0.03384620285423037,0.8039468654434251
0.12231707572937012,0.11190581936148891,-0.11190581936148891,0.11190581936148891,-0.5749872579001019,0.03384620285423037,0.8039468654434251
0.1260843276977539,0.11190581936148891,-0.11190581936148891,0.11190581936148891,-0.5749872579001019,0.03384620285423037,0.8039468654434251
0.13243699073791504,0.11190581936148891,-0.11190581936148891,0.11190581936148891,-0.5749872579001019,0.03384620285423037,0.8039468654434251
0.13922953605651855,0.11190581936148891,-0.11190581936148891,0.11190581936148891,-0.5749872579001019,0.03384620285423037,0.8039468654434251
0.14234042167663574,0.11190581936148891,-0.11190581936148891,0.11190581936148891,-0.5749872579001019,0.03384620285423037,0.8039468654434251
0.14638710021972656,0.11190581936148891,-0.11190581936148891,0.11190581936148891,-0.5749872579001019,0.03384620285423037,0.8039468654434251
0.15053224563598633,0.11190581936148891,-0.11190581936148891,0.11190581936148891,-0.5749872579001019,0.03384620285423037,0.8039468654434251
0.15354084968566895,0.11190581936148891,-0.11190581936148891,0.11190581936148891,-0.5749872579001019,0.03384620285423037,0.8039468654434251
0.15764069557189941,0.11190581936148891,-0.11190581936148891,0.11190581936148891,-0.5749872579001019,0.03384620285423037,0.8075305810397553
0.16257548332214355,0.11190581936148891,-0.11190581936148891,0.11190581936148891,-0.5749872579001019,0.03384620285423037,0.8075305810397553
0.1673426628112793,0.11190581936148891,-0.11190581936148891,0.11190581936148891,-0.5749872579001019,0.03384620285423037,0.8075305810397553
0.17194175720214844,0.11190581936148891,-0.11190581936148891,0.11190581936148891,-0.5749872579001019,0.03384620285423037,0.8075305810397553
0.17641115188598633,0.11190581936148891,-0.11190581936148891,0.11190581936148891,-0.5749872579001019,0.03384620285423037,0.8075305810397553
0.1807253360748291,0.11190581936148891,-0.11190581936148891,0.11190581936148891,-0.5749872579001019,0.03384620285423037,0.8075305810397553
0.18417143821716309,0.11190581936148891,0.0,0.0,-0.5749872579001019,0.03384620285423037,0.8039468654434251
0.19231057167053223,0.11190581936148891,0.0,0.0,-0.5749872579001019,0.03384620285423037,0.8039468654434251
0.19637155532836914,0.11190581936148891,0.0,0.0,-0.5749872579001019,0.03384620285423037,0.8039468654434251
0.20057439804077148,0.11190581936148891,0.0,0.0,-0.5749872579001019,0.03384620285423037,0.8039468654434251
0.20357322692871094,0.11190581936148891,0.0,0.0,-0.5749872579001019,0.03384620285423037,0.8039468654434251
0.20762944221496582,0.11190581936148891,0.0,0.0,-0.5749872579001019,0.03384620285423037,0.8039468654434251
0.21172714233398438,0.11190581936148891,0.0,0.0,-0.5749872579001019,0.03384620285423037,0.8039468654434251
0.215925931930542,0.11190581936148891,0.0,0.0,-0.5749872579001019,0.03384620285423037,0.8039468654434251
0.22040557861328125,0.11190581936148891,0.0,0.0,-0.5749872579001019,0.03384620285423037,0.8075305810397553
0.22675323486328125,0.11190581936148891,0.0,0.0,-0.5749872579001019,0.03384620285423037,0.8075305810397553
0.23114466667175293,0.11190581936148891,0.0,0.0,-0.5749872579001019,0.03384620285423037,0.8075305810397553
0.238800048828125,-0.11190581936148891,0.11190581936148891,0.0,-0.5749872579001019,0.03384620285423037,0.8075305810397553
0.24252533912658691,-0.11190581936148891,0.11190581936148891,0.0,-0.5749872579001019,0.03384620285423037,0.8075305810397553
0.24674654006958008,-0.11190581936148891,0.11190581936148891,0.0,-0.5749872579001019,0.03384620285423037,0.8075305810397553
0.2510037422180176,-0.11190581936148891,0.11190581936148891,0.0,-0.5749872579001019,0.03384620285423037,0.8075305810397553
0.25428223609924316,-0.11190581936148891,0.11190581936148891,0.0,-0.5749872579001019,0.03384620285423037,0.8075305810397553
0.2608184814453125,-0.11190581936148891,0.11190581936148891,0.0,-0.5749872579001019,0.03384620285423037,0.8075305810397553
0.2637975215911865,-0.11190581936148891,0.11190581936148891,0.0,-0.5749872579001019,0.03384620285423037,0.8075305810397553
0.2679476737976074,-0.11190581936148891,0.11190581936148891,0.0,-0.5749872579001019,0.03384620285423037,0.8075305810397553
0.272050142288208,-0.11190581936148891,0.11190581936148891,0.0,-0.5749872579001019,0.03384620285423037,0.8075305810397553
0.27655935287475586,-0.11190581936148891,0.11190581936148891,0.0,-0.5749872579001019,0.03384620285423037,0.8075305810397553
0.28103065490722656,-0.11190581936148891,0.11190581936148891,0.0,-0.5749872579001019,0.03384620285423037,0.8075305810397553
0.29099106788635254,0.11190581936148891,0.0,0.11190581936148891,-0.5749872579001019,0.03384620285423037,0.8075305810397553
0.29453301429748535,0.11190581936148891,0.0,0.11190581936148891,-0.5749872579001019,0.03384620285423037,0.8075305810397553
0.29926323890686035,0.11190581936148891,0.0,0.11190581936148891,-0.5749872579001019,0.03384620285423037,0.8075305810397553
0.3028593063354492,0.11190581936148891,0.0,0.11190581936148891,-0.5749872579001019,0.03384620285423037,0.8075305810397553
0.3073549270629883,0.11190581936148891,0.0,0.11190581936148891,-0.5749872579001019,0.03384620285423037,0.8075305810397553
0.3116567134857178,0.11190581936148891,0.0,0.11190581936148891,-0.5749872579001019,0.03384620285423037,0.8075305810397553
0.31590843200683594,0.11190581936148891,0.0,0.11190581936148891,-0.5789691641182466,0.03384620285423037,0.8039468654434251
0.32200145721435547,0.11190581936148891,0.0,0.11190581936148891,-0.5789691641182466,0.03384620285423037,0.8039468654434251
0.326052188873291,0.11190581936148891,0.0,0.11190581936148891,-0.5789691641182466,0.03384620285423037,0.8039468654434251
0.33019447326660156,0.11190581936148891,0.0,0.11190581936148891,-0.5789691641182466,0.03384620285423037,0.8039468654434251
0.3338449001312256,0.0,0.11190581936148891,-0.11190581936148891,-0.5789691641182466,0.03384620285423037,0.8039468654434251
0.34184765815734863,0.0,0.11190581936148891,-0.11190581936148891,-0.5789691641182466,0.03384620285423037,0.8039468654434251
0.34636878967285156,0.0,0.11190581936148891,-0.11190581936148891,-0.5789691641182466,0.03384620285423037,0.8039468654434251
0.3504338264465332,0.0,0.11190581936148891,-0.11190581936148891,-0.5789691641182466,0.03384620285423037,0.8039468654434251
0.35522937774658203,0.0,0.11190581936148891,-0.11190581936148891,-0.5789691641182466,0.03384620285423037,0.8039468654434251
0.35961294174194336,0.0,0.11190581936148891,-0.11190581936148891,-0.5789691641182466,0.03384620285423037,0.8039468654434251
0.36260175704956055,0.0,0.11190581936148891,-0.11190581936148891,-0.5789691641182466,0.03384620285423037,0.8039468654434251
0.3668818473815918,0.0,0.11190581936148891,-0.11190581936148891,-0.5789691641182466,0.03384620285423037,0.8039468654434251
0.3711826801300049,0.0,0.11190581936148891,-0.11190581936148891,-0.5789691641182466,0.03384620285423037,0.8039468654434251
0.3741729259490967,0.0,0.11190581936148891,-0.11190581936148891,-0.5789691641182466,0.03384620285423037,0.8039468654434251
0.3782823085784912,0.0,0.11190581936148891,-0.11190581936148891,-0.5789691641182466,0.03384620285423037,0.8039468654434251
0.38192272186279297,0.0,0.0,0.0,-0.5749872579001019,0.03384620285423037,0.8039468654434251
0.3913705348968506,0.0,0.0,0.0,-0.5749872579001019,0.03384620285423037,0.8039468654434251
0.39556384086608887,0.0,0.0,0.0,-0.5749872579001019,0.03384620285423037,0.8039468654434251
0.40027451515197754,0.0,0.0,0.0,-0.5749872579001019,0.03384620285423037,0.8039468654434251
0.40374135971069336,0.0,0.0,0.0,-0.5749872579001019,0.03384620285423037,0.8039468654434251
0.40828871726989746,0.0,0.0,0.0,-0.5749872579001019,0.03384620285423037,0.8039468654434251
0.4121086597442627,0.0,0.0,0.0,-0.5749872579001019,0.03384620285423037,0.8039468654434251
0.42008423805236816,0.0,0.0,0.0,-0.5749872579001019,0.03384620285423037,0.8039468654434251
0.4232017993927002,0.0,0.0,0.0,-0.5749872579001019,0.03384620285423037,0.8039468654434251
0.4272634983062744,0.0,0.0,0.0,-0.5749872579001019,0.03384620285423037,0.8039468654434251
0.431377649307251,0.0,0.0,0.0,-0.5749872579001019,0.03384620285423037,0.8039468654434251
0.4390990734100342,0.0,0.0,0.0,-0.5749872579001019,0.03384620285423037,0.8039468654434251
0.44242000579833984,0.0,0.0,0.0,-0.5749872579001019,0.03384620285423037,0.8039468654434251
0.4458620548248291,0.0,0.0,0.0,-0.5749872579001019,0.03384620285423037,0.8039468654434251
0.452648401260376,0.0,0.0,0.0,-0.5749872579001019,0.03384620285423037,0.8039468654434251
0.45722460746765137,0.0,0.0,0.0,-0.5749872579001019,0.03384620285423037,0.8039468654434251
0.4620542526245117,0.0,0.0,0.0,-0.5749872579001019,0.03384620285423037,0.8039468654434251
0.46670079231262207,0.0,0.0,0.0,-0.5749872579001019,0.03384620285423037,0.8039468654434251
0.4711129665374756,0.0,0.0,0.0,-0.5749872579001019,0.03384620285423037,0.8039468654434251
0.4745004177093506,0.0,0.0,0.0,-0.5749872579001019,0.03384620285423037,0.8039468654434251
0.4782993793487549,0.0,0.0,0.0,-0.5789691641182466,0.03384620285423037,0.8039468654434251
0.4835174083709717,-0.11190581936148891,0.0,0.0,-0.5789691641182466,0.03384620285423037,0.8039468654434251
0.49036407470703125,-0.11190581936148891,0.0,0.0,-0.5789691641182466,0.03384620285423037,0.8039468654434251
0.4934580326080322,-0.11190581936148891,0.0,0.0,-0.5789691641182466,0.03384620285423037,0.8039468654434251
0.4976325035095215,-0.11190581936148891,0.0,0.0,-0.5789691641182466,0.03384620285423037,0.8039468654434251
0.5014560222625732,-0.11190581936148891,0.0,0.0,-0.5789691641182466,0.03384620285423037,0.8039468654434251
0.5055959224700928,-0.11190581936148891,0.0,0.0,-0.5789691641182466,0.03384620285423037,0.8039468654434251
0.5102198123931885,-0.11190581936148891,0.0,0.0,-0.5749872579001019,0.03384620285423037,0.8039468654434251
0.5168914794921875,-0.11190581936148891,0.0,0.0,-0.5749872579001019,0.03384620285423037,0.8039468654434251
0.5215837955474854,-0.11190581936148891,0.0,0.0,-0.5749872579001019,0.03384620285423037,0.8039468654434251
0.5260608196258545,-0.11190581936148891,0.0,0.0,-0.5749872579001019,0.03384620285423037,0.8039468654434251
0.5303781032562256,-0.11190581936148891,0.0,0.0,-0.5749872579001019,0.03384620285423037,0.8039468654434251
0.5337953567504883,0.0,0.0,0.0,-0.5749872579001019,0.03384620285423037,0.8039468654434251
0.541243314743042,0.0,0.0,0.0,-0.5749872579001019,0.03384620285423037,0.8039468654434251
0.5442652702331543,0.0,0.0,0.0,-0.5749872579001019,0.03384620285423037,0.8075305810397553
0.5516502857208252,0.0,0.0,0.0,-0.5749872579001019,0.03384620285423037,0.8075305810397553
0.5546417236328125,0.0,0.0,0.0,-0.5749872579001019,0.03384620285423037,0.8075305810397553
0.5587074756622314,0.0,0.0,0.0,-0.5749872579001019,0.03384620285423037,0.8075305810397553
0.5618150234222412,0.0,0.0,0.0,-0.5749872579001019,0.03384620285423037,0.8075305810397553
0.566300630569458,0.0,0.0,0.0,-0.5749872579001019,0.03384620285423037,0.8075305810397553
0.5708281993865967,0.0,0.0,0.0,-0.5749872579001019,0.03384620285423037,0.8075305810397553
0.5742976665496826,0.0,0.0,0.0,-0.5789691641182466,0.03384620285423037,0.8075305810397553
0.5816237926483154,0.11190581936148891,0.11190581936148891,0.0,-0.5789691641182466,0.03384620285423037,0.8075305810397553
0.5898556709289551,0.11190581936148891,0.11190581936148891,0.0,-0.5789691641182466,0.03384620285423037,0.8075305810397553
0.5936086177825928,0.11190581936148891,0.11190581936148891,0.0,-0.5789691641182466,0.03384620285423037,0.8075305810397553
0.5982413291931152,0.11190581936148891,0.11190581936148891,0.0,-0.5789691641182466,0.03384620285423037,0.8075305810397553
0.6021089553833008,0.11190581936148891,0.11190581936148891,0.0,-0.5789691641182466,0.03384620285423037,0.8075305810397553
0.6067407131195068,0.11190581936148891,0.11190581936148891,0.0,-0.5749872579001019,0.03384620285423037,0.8075305810397553
0.6131405830383301,0.11190581936148891,0.11190581936148891,0.0,-0.5749872579001019,0.03384620285423037,0.8075305810397553
0.6178131103515625,0.11190581936148891,0.11190581936148891,0.0,-0.5749872579001019,0.03384620285423037,0.8075305810397553
0.6217031478881836,0.11190581936148891,0.11190581936148891,0.0,-0.5749872579001019,0.03384620285423037,0.8075305810397553
0.6264634132385254,0.11190581936148891,0.11190581936148891,0.0,-0.5749872579001019,0.03384620285423037,0.8075305810397553
0.6312596797943115,-0.11190581936148891,0.0,0.0,-0.5749872579001019,0.03384620285423037,0.8075305810397553
0.6392090320587158,-0.11190581936148891,0.0,0.0,-0.5749872579001019,0.03384620285423037,0.8075305810397553
0.6456272602081299,-0.11190581936148891,0.0,0.0,-0.5749872579001019,0.03384620285423037,0.8075305810397553
0.650357723236084,-0.11190581936148891,0.0,0.0,-0.5749872579001019,0.03384620285423037,0.8075305810397553
0.6540420055389404,-0.11190581936148891,0.0,0.0,-0.5749872579001019,0.03384620285423037,0.8075305810397553
0.6588034629821777,-0.11190581936148891,0.0,0.0,-0.5749872579001019,0.03384620285423037,0.8075305810397553
0.6625480651855469,-0.11190581936148891,0.0,0.0,-0.5749872579001019,0.03384620285423037,0.8075305810397553
0.6673538684844971,-0.11190581936148891,0.0,0.0,-0.5749872579001019,0.03384620285423037,0.8075305810397553
0.6710672378540039,-0.11190581936148891,0.0,0.0,-0.5749872579001019,0.03384620285423037,0.8075305810397553
0.6791894435882568,-0.11190581936148891,0.0,0.0,-0.5749872579001019,0.03384620285423037,0.8075305810397553
0.6829283237457275,0.11190581936148891,0.0,0.0,-0.5749872579001019,0.03384620285423037,0.8075305810397553
0.6912326812744141,0.11190581936148891,0.0,0.0,-0.5749872579001019,0.03384620285423037,0.8075305810397553
0.6959836483001709,0.11190581936148891,0.0,0.0,-0.5749872579001019,0.03384620285423037,0.8075305810397553
0.7004966735839844,0.11190581936148891,0.0,0.0,-0.5749872579001019,0.03384620285423037,0.8075305810397553
0.7042434215545654,0.11190581936148891,0.0,0.0,-0.5749872579001019,0.03384620285423037,0.8075305810397553
0.7117350101470947,0.11190581936148891,0.0,0.0,-0.5749872579001019,0.03384620285423037,0.8075305810397553
0.7162718772888184,0.11190581936148891,0.0,0.0,-0.5749872579001019,0.03384620285423037,0.8075305810397553
0.7209093570709229,0.11190581936148891,0.0,0.0,-0.5749872579001019,0.03384620285423037,0.8075305810397553
0.725733757019043,0.11190581936148891,0.0,0.0,-0.5749872579001019,0.03384620285423037,0.8075305810397553
0.7302584648132324,0.11190581936148891,0.0,0.0,-0.5749872579001019,0.03384620285423037,0.8039468654434251
0.7393558025360107,-0.11190581936148891,0.11190581936148891,0.11190581936148891,-0.5749872579001019,0.03384620285423037,0.8039468654434251
0.7430429458618164,-0.11190581936148891,0.11190581936148891,0.11190581936148891,-0.5749872579001019,0.03384620285423037,0.8039468654434251
0.747509241104126,-0.11190581936148891,0.11190581936148891,0.11190581936148891,-0.5749872579001019,0.03384620285423037,0.8039468654434251
0.7515277862548828,-0.11190581936148891,0.11190581936148891,0.11190581936148891,-0.5749872579001019,0.03384620285423037,0.8039468654434251
0.7561559677124023,-0.11190581936148891,0.11190581936148891,0.11190581936148891,-0.5749872579001019,0.03384620285423037,0.8039468654434251
0.7609071731567383,-0.11190581936148891,0.11190581936148891,0.11190581936148891,-0.5749872579001019,0.03384620285423037,0.8039468654434251
0.7655305862426758,-0.11190581936148891,0.11190581936148891,0.11190581936148891,-0.5749872579001019,0.03384620285423037,0.8075305810397553
0.7724342346191406,-0.11190581936148891,0.11190581936148891,0.11190581936148891,-0.5749872579001019,0.03384620285423037,0.8075305810397553
0.7771306037902832,-0.11190581936148891,0.11190581936148891,0.11190581936148891,-0.5749872579001019,0.03384620285423037,0.8075305810397553
0.7813854217529297,-0.11190581936148891,0.0,0.0,-0.5749872579001019,0.03384620285423037,0.8075305810397553
0.789064884185791,-0.11190581936148891,0.0,0.0,-0.5749872579001019,0.03384620285423037,0.8075305810397553
0.7925174236297607,-0.11190581936148891,0.0,0.0,-0.5749872579001019,0.03384620285423037,0.8075305810397553
0.7969131469726562,-0.11190581936148891,0.0,0.0,-0.5749872579001019,0.03384620285423037,0.8075305810397553
0.803469181060791,-0.11190581936148891,0.0,0.0,-0.5749872579001019,0.03384620285423037,0.8075305810397553
0.808232307434082,-0.11190581936148891,0.0,0.0,-0.5749872579001019,0.03384620285423037,0.8075305810397553
0.81203293800354,-0.11190581936148891,0.0,0.0,-0.5749872579001019,0.03384620285423037,0.8075305810397553
0.8169126510620117,-0.11190581936148891,0.0,0.0,-0.5749872579001019,0.03384620285423037,0.8075305810397553
0.8216204643249512,-0.11190581936148891,0.0,0.0,-0.5749872579001019,0.03384620285423037,0.8075305810397553
0.8262743949890137,-0.11190581936148891,0.0,0.0,-0.5749872579001019,0.03384620285423037,0.8075305810397553
0.8310871124267578,-0.11190581936148891,0.22381163872297782,0.0,-0.5749872579001019,0.03384620285423037,0.8039468654434251
0.8419680595397949,-0.11190581936148891,0.22381163872297782,0.0,-0.5749872579001019,0.03384620285423037,0.8039468654434251
0.8469381332397461,-0.11190581936148891,0.22381163872297782,0.0,-0.5749872579001019,0.03384620285423037,0.8039468654434251
0.8515579700469971,-0.11190581936148891,0.22381163872297782,0.0,-0.5749872579001019,0.03384620285423037,0.8039468654434251
0.8569531440734863,-0.11190581936148891,0.22381163872297782,0.0,-0.5749872579001019,0.03384620285423037,0.8039468654434251
0.8618447780609131,-0.11190581936148891,0.22381163872297782,0.0,-0.5749872579001019,0.03384620285423037,0.8039468654434251
0.869715690612793,-0.11190581936148891,0.22381163872297782,0.0,-0.5749872579001019,0.03384620285423037,0.8039468654434251
0.8735604286193848,-0.11190581936148891,0.22381163872297782,0.0,-0.5749872579001019,0.03384620285423037,0.8039468654434251
0.8783729076385498,-0.11190581936148891,0.22381163872297782,0.0,-0.5749872579001019,0.03384620285423037,0.8039468654434251
0.8821737766265869,0.0,0.11190581936148891,0.0,-0.5749872579001019,0.03384620285423037,0.8039468654434251
0.8905806541442871,0.0,0.11190581936148891,0.0,-0.5749872579001019,0.03384620285423037,0.8039468654434251
0.8950333595275879,0.0,0.11190581936148891,0.0,-0.5749872579001019,0.03384620285423037,0.8075305810397553
0.9029033184051514,0.0,0.11190581936148891,0.0,-0.5749872579001019,0.03384620285423037,0.8075305810397553
0.9080212116241455,0.0,0.11190581936148891,0.0,-0.5749872579001019,0.03384620285423037,0.8075305810397553
0.9118411540985107,0.0,0.11190581936148891,0.0,-0.5749872579001019,0.03384620285423037,0.8075305810397553
0.9168682098388672,0.0,0.11190581936148891,0.0,-0.5749872579001019,0.03384620285423037,0.8075305810397553
0.921546459197998,0.0,0.11190581936148891,0.0,-0.5749872579001019,0.03384620285423037,0.8075305810397553
0.9263162612915039,0.0,0.11190581936148891,0.0,-0.5789691641182466,0.03384620285423037,0.8075305810397553
0.9330852031707764,-0.11190581936148891,0.0,0.11190581936148891,-0.5789691641182466,0.03384620285423037,0.8075305810397553
0.9410243034362793,-0.11190581936148891,0.0,0.11190581936148891,-0.5789691641182466,0.03384620285423037,0.8075305810397553
0.9454662799835205,-0.11190581936148891,0.0,0.11190581936148891,-0.5789691641182466,0.03384620285423037,0.8075305810397553
0.9502172470092773,-0.11190581936148891,0.0,0.11190581936148891,-0.5789691641182466,0.03384620285423037,0.8075305810397553
0.9535257816314697,-0.11190581936148891,0.0,0.11190581936148891,-0.5789691641182466,0.03384620285423037,0.8075305810397553
0.9579505920410156,-0.11190581936148891,0.0,0.11190581936148891,-0.5749872579001019,0.03384620285423037,0.8075305810397553
0.963740348815918,-0.11190581936148891,0.0,0.11190581936148891,-0.5749872579001019,0.03384620285423037,0.8075305810397553
0.9688293933868408,-0.11190581936148891,0.0,0.11190581936148891,-0.5749872579001019,0.03384620285423037,0.8075305810397553
0.9728834629058838,-0.11190581936148891,0.0,0.11190581936148891,-0.5749872579001019,0.03384620285423037,0.8075305810397553
0.9781920909881592,-0.11190581936148891,0.0,0.11190581936148891,-0.5749872579001019,0.03384620285423037,0.8075305810397553
0.9822020530700684,0.11190581936148891,0.11190581936148891,0.0,-0.5749872579001019,0.03384620285423037,0.8075305810397553
0.9910106658935547,0.11190581936148891,0.11190581936148891,0.0,-0.5749872579001019,0.03384620285423037,0.8039468654434251
0.998986005783081,0.11190581936148891,0.11190581936148891,0.0,-0.5749872579001019,0.03384620285423037,0.8039468654434251
1.0029017925262451,0.11190581936148891,0.11190581936148891,0.0,-0.5749872579001019,0.03384620285423037,0.8039468654434251
1.0078282356262207,0.11190581936148891,0.11190581936148891,0.0,-0.5749872579001019,0.03384620285423037,0.8039468654434251
1.0117762088775635,0.11190581936148891,0.11190581936148891,0.0,-0.5749872579001019,0.03384620285423037,0.8039468654434251
1.0169243812561035,0.11190581936148891,0.11190581936148891,0.0,-0.5749872579001019,0.03384620285423037,0.8039468654434251
1.0209167003631592,0.11190581936148891,0.11190581936148891,0.0,-0.5749872579001019,0.03384620285423037,0.8039468654434251
1.028930902481079,0.11190581936148891,0.11190581936148891,0.0,-0.5749872579001019,0.03384620285423037,0.8039468654434251
1.0327575206756592,0.0,0.11190581936148891,-0.11190581936148891,-0.5749872579001019,0.03384620285423037,0.8039468654434251
1.0407943725585938,0.0,0.11190581936148891,-0.11190581936148891,-0.5749872579001019,0.03384620285423037,0.8039468654434251
1.0450286865234375,0.0,0.11190581936148891,-0.11190581936148891,-0.5749872579001019,0.03384620285423037,0.8039468654434251
1.0493879318237305,0.0,0.11190581936148891,-0.11190581936148891,-0.5749872579001019,0.03384620285423037,0.8039468654434251
1.052393913269043,0.0,0.11190581936148891,-0.11190581936148891,-0.5749872579001019,0.03384620285423037,0.8039468654434251
1.058398723602295,0.0,0.11190581936148891,-0.11190581936148891,-0.5749872579001019,0.03384620285423037,0.8039468654434251
1.0620265007019043,0.0,0.11190581936148891,-0.11190581936148891,-0.5749872579001019,0.03384620285423037,0.8039468654434251
1.0666899681091309,0.0,0.11190581936148891,-0.11190581936148891,-0.5749872579001019,0.03384620285423037,0.8039468654434251
1.0707087516784668,0.0,0.11190581936148891,-0.11190581936148891,-0.5749872579001019,0.03384620285423037,0.8039468654434251
1.0751564502716064,0.0,0.11190581936148891,-0.11190581936148891,-0.5749872579001019,0.03384620285423037,0.8039468654434251
1.079535722732544,0.0,0.11190581936148891,-0.11190581936148891,-0.5749872579001019,0.03384620285423037,0.8039468654434251
1.08561372756958,-0.11190581936148891,0.11190581936148891,0.0,-0.5749872579001019,0.03384620285423037,0.8075305810397553
1.0910022258758545,-0.11190581936148891,0.11190581936148891,0.0,-0.5749872579001019,0.03384620285423037,0.8075305810397553
1.095128059387207,-0.11190581936148891,0.11190581936148891,0.0,-0.5749872579001019,0.03384620285423037,0.8075305810397553
1.0993187427520752,-0.11190581936148891,0.11190581936148891,0.0,-0.5749872579001019,0.03384620285423037,0.8075305810397553
1.102421760559082,-0.11190581936148891,0.11190581936148891,0.0,-0.5749872579001019,0.03384620285423037,0.8075305810397553
1.1067938804626465,-0.11190581936148891,0.11190581936148891,0.0,-0.5749872579001019,0.03384620285423037,0.8075305810397553
1.1102628707885742,-0.11190581936148891,0.11190581936148891,0.0,-0.5749872579001019,0.03384620285423037,0.8075305810397553
1.1146812438964844,-0.11190581936148891,0.11190581936148891,0.0,-0.5749872579001019,0.03384620285423037,0.8075305810397553
1.1192219257354736,-0.11190581936148891,0.11190581936148891,0.0,-0.5749872579001019,0.03384620285423037,0.8039468654434251
1.125415325164795,-0.11190581936148891,0.11190581936148891,0.0,-0.5749872579001019,0.03384620285423037,0.8039468654434251
1.1299476623535156,-0.11190581936148891,-0.33571745808446674,0.11190581936148891,-0.5749872579001019,0.03384620285423037,0.8039468654434251
1.1372220516204834,-0.11190581936148891,-0.33571745808446674,0.11190581936148891,-0.5749872579001019,0.03384620285423037,0.8039468654434251
1.140542984008789,-0.11190581936148891,-0.33571745808446674,0.11190581936148891,-0.5749872579001019,0.03384620285423037,0.8039468654434251
1.14463210105896,-0.11190581936148891,-0.33571745808446674,0.11190581936148891,-0.5749872579001019,0.03384620285423037,0.8039468654434251
1.1488690376281738,-0.11190581936148891,-0.33571745808446674,0.11190581936148891,-0.5749872579001019,0.03384620285423037,0.8039468654434251
1.152031660079956,-0.11190581936148891,-0.33571745808446674,0.11190581936148891,-0.5749872579001019,0.03384620285423037,0.8075305810397553
1.1578946113586426,-0.11190581936148891,-0.33571745808446674,0.11190581936148891,-0.5749872579001019,0.03384620285423037,0.8075305810397553
1.1611716747283936,-0.11190581936148891,-0.33571745808446674,0.11190581936148891,-0.5749872579001019,0.03384620285423037,0.8075305810397553
1.1655497550964355,-0.11190581936148891,-0.33571745808446674,0.11190581936148891,-0.5749872579001019,0.03384620285423037,0.8075305810397553
1.1696932315826416,-0.11190581936148891,-0.33571745808446674,0.11190581936148891,-0.5749872579001019,0.03384620285423037,0.8075305810397553
1.173177719116211,-0.11190581936148891,-0.33571745808446674,0.11190581936148891,-0.5749872579001019,0.03384620285423037,0.8075305810397553
1.177687406539917,-0.11190581936148891,-0.33571745808446674,0.11190581936148891,-0.5749872579001019,0.03384620285423037,0.8075305810397553
1.1817247867584229,-0.11190581936148891,0.22381163872297782,0.11190581936148891,-0.5789691641182466,0.03384620285423037,0.8039468654434251
1.191633701324463,-0.11190581936148891,0.22381163872297782,0.11190581936148891,-0.5789691641182466,0.03384620285423037,0.8039468654434251
1.195882797241211,-0.11190581936148891,0.22381163872297782,0.11190581936148891,-0.5789691641182466,0.03384620285423037,0.8039468654434251
1.2002358436584473,-0.11190581936148891,0.22381163872297782,0.11190581936148891,-0.5789691641182466,0.03384620285423037,0.8039468654434251
1.203308343887329,-0.11190581936148891,0.22381163872297782,0.11190581936148891,-0.5789691641182466,0.03384620285423037,0.8039468654434251
1.2075064182281494,-0.11190581936148891,0.22381163872297782,0.11190581936148891,-0.5789691641182466,0.03384620285423037,0.8039468654434251
1.2105093002319336,-0.11190581936148891,0.22381163872297782,0.11190581936148891,-0.5789691641182466,0.03384620285423037,0.8039468654434251
1.214676856994629,-0.11190581936148891,0.22381163872297782,0.11190581936148891,-0.5749872579001019,0.03384620285423037,0.8075305810397553
1.2205078601837158,-0.11190581936148891,0.22381163872297782,0.11190581936148891,-0.5749872579001019,0.03384620285423037,0.8075305810397553
1.2246644496917725,-0.11190581936148891,0.22381163872297782,0.11190581936148891,-0.5749872579001019,0.03384620285423037,0.8075305810397553
1.2290124893188477,-0.11190581936148891,0.22381163872297782,0.11190581936148891,-0.5749872579001019,0.03384620285423037,0.8075305810397553
1.234551191329956,0.0,-0.33571745808446674,0.11190581936148891,-0.5749872579001019,0.03384620285423037,0.8075305810397553
1.23909330368042,0.0,-0.33571745808446674,0.11190581936148891,-0.5749872579001019,0.03384620285423037,0.8075305810397553
1.242828607559204,0.0,-0.33571745808446674,0.11190581936148891,-0.5749872579001019,0.03384620285423037,0.8075305810397553
1.2474555969238281,0.0,-0.33571745808446674,0.11190581936148891,-0.5749872579001019,0.03384620285423037,0.8075305810397553
1.2521421909332275,0.0,-0.33571745808446674,0.11190581936148891,-0.5749872579001019,0.03384620285423037,0.8075305810397553
1.2562220096588135,0.0,-0.33571745808446674,0.11190581936148891,-0.5749872579001019,0.03384620285423037,0.8075305810397553
1.260263204574585,0.0,-0.33571745808446674,0.11190581936148891,-0.5749872579001019,0.03384620285423037,0.8075305810397553
1.2646496295928955,0.0,-0.33571745808446674,0.11190581936148891,-0.5749872579001019,0.03384620285423037,0.8075305810397553
1.2689011096954346,0.0,-0.33571745808446674,0.11190581936148891,-0.5749872579001019,0.03384620285423037,0.8075305810397553
1.2719757556915283,0.0,-0.33571745808446674,0.11190581936148891,-0.5749872579001019,0.03384620285423037,0.8075305810397553
1.2760159969329834,0.0,-0.33571745808446674,0.11190581936148891,-0.5749872579001019,0.03384620285423037,0.8075305810397553
1.2791354656219482,0.0,0.11190581936148891,0.0,-0.5749872579001019,0.03384620285423037,0.8075305810397553
1.2890119552612305,0.0,0.11190581936148891,0.0,-0.5749872579001019,0.03384620285423037,0.8075305810397553
1.2926113605499268,0.0,0.11190581936148891,0.0,-0.5749872579001019,0.03384620285423037,0.8075305810397553
1.29744291305542,0.0,0.11190581936148891,0.0,-0.5749872579001019,0.03384620285423037,0.8075305810397553
1.301072597503662,0.0,0.11190581936148891,0.0,-0.5749872579001019,0.03384620285423037,0.8075305810397553
1.3055710792541504,0.0,0.11190581936148891,0.0,-0.5749872579001019,0.03384620285423037,0.8075305810397553
1.309870719909668,0.0,0.11190581936148891,0.0,-0.5749872579001019,0.03384620285423037,0.8039468654434251
1.3174700736999512,0.0,0.11190581936148891,0.0,-0.5749872579001019,0.03384620285423037,0.8039468654434251
1.3207993507385254,0.0,0.11190581936148891,0.0,-0.5749872579001019,0.03384620285423037,0.8039468654434251
1.3253605365753174,0.0,0.11190581936148891,0.0,-0.5749872579001019,0.03384620285423037,0.8039468654434251
1.3298168182373047,0.11190581936148891,0.11190581936148891,-0.22381163872297782,-0.5749872579001019,0.03384620285423037,0.8039468654434251
1.3381767272949219,0.11190581936148891,0.11190581936148891,-0.22381163872297782,-0.5749872579001019,0.03384620285423037,0.8039468654434251
1.3419723510742188,0.11190581936148891,0.11190581936148891,-0.22381163872297782,-0.5749872579001019,0.03384620285423037,0.8075305810397553
1.3515846729278564,0.11190581936148891,0.11190581936148891,-0.22381163872297782,-0.5749872579001019,0.03384620285423037,0.8075305810397553
1.3567497730255127,0.11190581936148891,0.11190581936148891,-0.22381163872297782,-0.5749872579001019,0.03384620285423037,0.8075305810397553
1.3610053062438965,0.11190581936148891,0.11190581936148891,-0.22381163872297782,-0.5749872579001019,0.03384620285423037,0.8075305810397553
1.3663601875305176,0.11190581936148891,0.11190581936148891,-0.22381163872297782,-0.5749872579001019,0.03384620285423037,0.8075305810397553
1.370870590209961,0.11190581936148891,0.11190581936148891,-0.22381163872297782,-0.5749872579001019,0.03384620285423037,0.8075305810397553
1.3755922317504883,0.11190581936148891,0.11190581936148891,-0.22381163872297782,-0.5749872579001019,0.03384620285423037,0.8075305810397553
1.3882524967193604,0.0,0.11190581936148891,-0.11190581936148891,-0.5749872579001019,0.03384620285423037,0.8075305810397553
1.3922724723815918,0.0,0.11190581936148891,-0.11190581936148891,-0.5749872579001019,0.03384620285423037,0.8075305810397553
1.397188425064087,0.0,0.11190581936148891,-0.11190581936148891,-0.5749872579001019,0.03384620285423037,0.8075305810397553
1.40142822265625,0.0,0.11190581936148891,-0.11190581936148891,-0.5749872579001019,0.03384620285423037,0.8075305810397553
1.4068078994750977,0.0,0.11190581936148891,-0.11190581936148891,-0.5749872579001019,0.03384620285423037,0.8075305810397553
1.4155056476593018,0.0,0.11190581936148891,-0.11190581936148891,-0.5749872579001019,0.03384620285423037,0.8075305810397553
1.4202971458435059,0.0,0.11190581936148891,-0.11190581936148891,-0.5749872579001019,0.03384620285423037,0.8075305810397553
1.4248580932617188,0.0,0.11190581936148891,-0.11190581936148891,-0.5749872579001019,0.03384620285423037,0.8075305810397553
1.4302480220794678,0.11190581936148891,0.11190581936148891,-0.11190581936148891,-0.5749872579001019,0.03384620285423037,0.8075305810397553
1.4388153553009033,0.11190581936148891,0.11190581936148891,-0.11190581936148891,-0.5749872579001019,0.03384620285423037,0.8075305810397553
1.4469692707061768,0.11190581936148891,0.11190581936148891,-0.11190581936148891,-0.5749872579001019,0.03384620285423037,0.8075305810397553
1.4510955810546875,0.11190581936148891,0.11190581936148891,-0.11190581936148891,-0.5749872579001019,0.03384620285423037,0.8075305810397553
1.4564440250396729,0.11190581936148891,0.11190581936148891,-0.11190581936148891,-0.5749872579001019,0.03384620285423037,0.8075305810397553
1.4607717990875244,0.11190581936148891,0.11190581936148891,-0.11190581936148891,-0.5749872579001019,0.03384620285423037,0.8075305810397553
1.4660134315490723,0.11190581936148891,0.11190581936148891,-0.11190581936148891,-0.5749872579001019,0.03384620285423037,0.8075305810397553
1.4704809188842773,0.11190581936148891,0.11190581936148891,-0.11190581936148891,-0.5749872579001019,0.03384620285423037,0.8039468654434251
1.4791407585144043,0.22381163872297782,-0.11190581936148891,0.0,-0.5749872579001019,0.03384620285423037,0.8039468654434251
1.4869542121887207,0.22381163872297782,-0.11190581936148891,0.0,-0.5749872579001019,0.03384620285423037,0.8039468654434251
1.4909017086029053,0.22381163872297782,-0.11190581936148891,0.0,-0.5749872579001019,0.03384620285423037,0.8039468654434251
1.4956200122833252,0.22381163872297782,-0.11190581936148891,0.0,-0.5749872579001019,0.03384620285423037,0.8039468654434251
1.499969244003296,0.22381163872297782,-0.11190581936148891,0.0,-0.5749872579001019,0.03384620285423037,0.8039468654434251
1.5035362243652344,0.22381163872297782,-0.11190581936148891,0.0,-0.5749872579001019,0.03384620285423037,0.8075305810397553
1.510117530822754,0.22381163872297782,-0.11190581936148891,0.0,-0.5749872579001019,0.03384620285423037,0.8075305810397553
1.5143132209777832,0.22381163872297782,-0.11190581936148891,0.0,-0.5749872579001019,0.03384620285423037,0.8075305810397553
1.5184805393218994,0.22381163872297782,-0.11190581936148891,0.0,-0.5749872579001019,0.03384620285423037,0.8075305810397553
1.5220317840576172,0.22381163872297782,-0.11190581936148891,0.0,-0.5749872579001019,0.03384620285423037,0.8075305810397553
1.5263357162475586,0.22381163872297782,-0.11190581936148891,0.0,-0.5749872579001019,0.03384620285423037,0.8075305810397553
1.5303800106048584,0.11190581936148891,-0.11190581936148891,0.0,-0.5749872579001019,0.03384620285423037,0.8075305810397553
1.5402910709381104,0.11190581936148891,-0.11190581936148891,0.0,-0.5749872579001019,0.03384620285423037,0.8075305810397553
1.5452680587768555,0.11190581936148891,-0.11190581936148891,0.0,-0.5749872579001019,0.03384620285423037,0.8075305810397553
1.5501489639282227,0.11190581936148891,-0.11190581936148891,0.0,-0.5749872579001019,0.03384620285423037,0.8075305810397553
1.555509090423584,0.11190581936148891,-0.11190581936148891,0.0,-0.5749872579001019,0.03384620285423037,0.8075305810397553
1.5601296424865723,0.11190581936148891,-0.11190581936148891,0.0,-0.5749872579001019,0.03384620285423037,0.8075305810397553
1.5645966529846191,0.11190581936148891,-0.11190581936148891,0.0,-0.5749872579001019,0.03384620285423037,0.8075305810397553
1.5680642127990723,0.11190581936148891,-0.11190581936148891,0.0,-0.5749872579001019,0.03384620285423037,0.8075305810397553
1.5740139484405518,0.11190581936148891,-0.11190581936148891,0.0,-0.5749872579001019,0.03384620285423037,0.8075305810397553
1.578866720199585,0.0,-0.11190581936148891,0.0,-0.5749872579001019,0.03384620285423037,0.8075305810397553
1.5864076614379883,0.0,-0.11190581936148891,0.0,-0.5749872579001019,0.03384620285423037,0.8075305810397553
1.5902462005615234,0.0,-0.11190581936148891,0.0,-0.5749872579001019,0.03384620285423037,0.8075305810397553
1.5947532653808594,0.0,-0.11190581936148891,0.0,-0.5749872579001019,0.03384620285423037,0.8075305810397553
1.599708080291748,0.0,-0.11190581936148891,0.0,-0.5749872579001019,0.03384620285423037,0.8075305810397553
1.607283353805542,0.0,-0.11190581936148891,0.0,-0.5749872579001019,0.03384620285423037,0.8075305810397553
1.6116442680358887,0.0,-0.11190581936148891,0.0,-0.5749872579001019,0.03384620285423037,0.8075305810397553
1.617039442062378,0.0,-0.11190581936148891,0.0,-0.5749872579001019,0.03384620285423037,0.8075305810397553
1.6211562156677246,0.0,-0.11190581936148891,0.0,-0.5749872579001019,0.03384620285423037,0.8075305810397553
1.6262321472167969,0.0,-0.11190581936148891,0.0,-0.5749872579001019,0.03384620285423037,0.8075305810397553
1.6305818557739258,0.0,-0.11190581936148891,-0.11190581936148891,-0.5749872579001019,0.03384620285423037,0.8039468654434251
1.6413733959197998,0.0,-0.11190581936148891,-0.11190581936148891,-0.5749872579001019,0.03384620285423037,0.8039468654434251
1.6465389728546143,0.0,-0.11190581936148891,-0.11190581936148891,-0.5749872579001019,0.03384620285423037,0.8039468654434251
1.6503443717956543,0.0,-0.11190581936148891,-0.11190581936148891,-0.5749872579001019,0.03384620285423037,0.8039468654434251
1.6548690795898438,0.0,-0.11190581936148891,-0.11190581936148891,-0.5749872579001019,0.03384620285423037,0.8039468654434251
1.6595346927642822,0.0,-0.11190581936148891,-0.11190581936148891,-0.5749872579001019,0.03384620285423037,0.8039468654434251
1.6634800434112549,0.0,-0.11190581936148891,-0.11190581936148891,-0.5749872579001019,0.03384620285423037,0.8075305810397553
1.6703052520751953,0.0,-0.11190581936148891,-0.11190581936148891,-0.5749872579001019,0.03384620285423037,0.8075305810397553
1.6749234199523926,0.0,-0.11190581936148891,-0.11190581936148891,-0.5749872579001019,0.03384620285423037,0.8075305810397553
1.6797924041748047,0.11190581936148891,-0.11190581936148891,0.11190581936148891,-0.5749872579001019,0.03384620285423037,0.8075305810397553
1.6866590976715088,0.11190581936148891,-0.11190581936148891,0.11190581936148891,-0.5749872579001019,0.03384620285423037,0.8075305810397553
1.6904051303863525,0.11190581936148891,-0.11190581936148891,0.11190581936148891,-0.5749872579001019,0.03384620285423037,0.8075305810397553
1.6950957775115967,0.11190581936148891,-0.11190581936148891,0.11190581936148891,-0.5749872579001019,0.03384620285423037,0.8075305810397553
1.7017922401428223,0.11190581936148891,-0.11190581936148891,0.11190581936148891,-0.5749872579001019,0.03384620285423037,0.8075305810397553
1.7064361572265625,0.11190581936148891,-0.11190581936148891,0.11190581936148891,-0.5749872579001019,0.03384620285423037,0.8075305810397553
1.7104172706604004,0.11190581936148891,-0.11190581936148891,0.11190581936148891,-0.5749872579001019,0.03384620285423037,0.8075305810397553
1.715557336807251,0.11190581936148891,-0.11190581936148891,0.11190581936148891,-0.5749872579001019,0.03384620285423037,0.8075305810397553
1.7200696468353271,0.11190581936148891,-0.11190581936148891,0.11190581936148891,-0.5749872579001019,0.03384620285423037,0.8075305810397553
1.7246308326721191,0.11190581936148891,-0.11190581936148891,0.11190581936148891,-0.5749872579001019,0.03384620285423037,0.8039468654434251
1.7310545444488525,0.0,-0.11190581936148891,-0.11190581936148891,-0.5749872579001019,0.03384620285423037,0.8039468654434251
1.7386717796325684,0.0,-0.11190581936148891,-0.11190581936148891,-0.5749872579001019,0.03384620285423037,0.8039468654434251
1.742391586303711,0.0,-0.11190581936148891,-0.11190581936148891,-0.5749872579001019,0.03384620285423037,0.8039468654434251
1.7468931674957275,0.0,-0.11190581936148891,-0.11190581936148891,-0.5749872579001019,0.03384620285423037,0.8039468654434251
1.7501153945922852,0.0,-0.11190581936148891,-0.11190581936148891,-0.5749872579001019,0.03384620285423037,0.8039468654434251
1.7541742324829102,0.0,-0.11190581936148891,-0.11190581936148891,-0.5749872579001019,0.03384620285423037,0.8039468654434251
1.7584383487701416,0.0,-0.11190581936148891,-0.11190581936148891,-0.5789691641182466,0.03384620285423037,0.8075305810397553
1.7661585807800293,0.0,-0.11190581936148891,-0.11190581936148891,-0.5789691641182466,0.03384620285423037,0.8075305810397553
1.7694587707519531,0.0,-0.11190581936148891,-0.11190581936148891,-0.5789691641182466,0.03384620285423037,0.8075305810397553
1.7741293907165527,0.0,-0.11190581936148891,-0.11190581936148891,-0.5789691641182466,0.03384620285423037,0.8075305810397553
1.7793943881988525,-0.11190581936148891,-0.11190581936148891,0.0,-0.5789691641182466,0.03384620285423037,0.8075305810397553
1.7877249717712402,-0.11190581936148891,-0.11190581936148891,0.0,-0.5789691641182466,0.03384620285423037,0.8075305810397553
1.7912745475769043,-0.11190581936148891,-0.11190581936148891,0.0,-0.5749872579001019,0.03384620285423037,0.8075305810397553
1.7995731830596924,-0.11190581936148891,-0.11190581936148891,0.0,-0.5749872579001019,0.03384620285423037,0.8075305810397553
1.8042216300964355,-0.11190581936148891,-0.11190581936148891,0.0,-0.5749872579001019,0.03384620285423037,0.8075305810397553
1.808800220489502,-0.11190581936148891,-0.11190581936148891,0.0,-0.5749872579001019,0.03384620285423037,0.8075305810397553
1.813138484954834,-0.11190581936148891,-0.11190581936148891,0.0,-0.5749872579001019,0.03384620285423037,0.8075305810397553
1.8177247047424316,-0.11190581936148891,-0.11190581936148891,0.0,-0.5749872579001019,0.03384620285423037,0.8075305810397553
1.821120023727417,-0.11190581936148891,-0.11190581936148891,0.0,-0.5749872579001019,0.03384620285423037,0.8039468654434251
1.8285787105560303,-0.11190581936148891,-0.11190581936148891,0.0,-0.5749872579001019,0.03384620285423037,0.8039468654434251
1.833571434020996,0.0,0.0,0.0,-0.5749872579001019,0.03384620285423037,0.8039468654434251
1.838151454925537,0.0,0.0,0.0,-0.5749872579001019,0.03384620285423037,0.8039468654434251
1.8413169384002686,0.0,0.0,0.0,-0.5749872579001019,0.03384620285423037,0.8039468654434251
1.8457763195037842,0.0,0.0,0.0,-0.5749872579001019,0.03384620285423037,0.8039468654434251
1.849592685699463,0.0,0.0,0.0,-0.5749872579001019,0.03384620285423037,0.8039468654434251
1.8545236587524414,0.0,0.0,0.0,-0.5749872579001019,0.03384620285423037,0.8075305810397553
1.8617124557495117,0.0,0.0,0.0,-0.5749872579001019,0.03384620285423037,0.8075305810397553
1.8668522834777832,0.0,0.0,0.0,-0.5749872579001019,0.03384620285423037,0.8075305810397553
1.8707075119018555,0.0,0.0,0.0,-0.5749872579001019,0.03384620285423037,0.8075305810397553
1.8755300045013428,0.0,0.0,0.0,-0.5749872579001019,0.03384620285423037,0.8075305810397553
1.8798894882202148,0.11190581936148891,0.0,-0.11190581936148891,-0.5749872579001019,0.03384620285423037,0.8075305810397553
1.8883473873138428,0.11190581936148891,0.0,-0.11190581936148891,-0.5749872579001019,0.03384620285423037,0.8039468654434251
1.8964509963989258,0.11190581936148891,0.0,-0.11190581936148891,-0.5749872579001019,0.03384620285423037,0.8039468654434251
1.8999366760253906,0.11190581936148891,0.0,-0.11190581936148891,-0.5749872579001019,0.03384620285423037,0.8039468654434251
1.904219388961792,0.11190581936148891,0.0,-0.11190581936148891,-0.5749872579001019,0.03384620285423037,0.8039468654434251
1.9086825847625732,0.11190581936148891,0.0,-0.11190581936148891,-0.5749872579001019,0.03384620285423037,0.8039468654434251
1.9131767749786377,0.11190581936148891,0.0,-0.11190581936148891,-0.5749872579001019,0.03384620285423037,0.8039468654434251
1.9173362255096436,0.11190581936148891,0.0,-0.11190581936148891,-0.5749872579001019,0.03384620285423037,0.8039468654434251
1.9203355312347412,0.11190581936148891,0.0,-0.11190581936148891,-0.5749872579001019,0.03384620285423037,0.8075305810397553
1.9284710884094238,0.11190581936148891,-0.33571745808446674,0.0,-0.5749872579001019,0.03384620285423037,0.8075305810397553
1.9359359741210938,0.11190581936148891,-0.33571745808446674,0.0,-0.5749872579001019,0.03384620285423037,0.8075305810397553
1.939523458480835,0.11190581936148891,-0.33571745808446674,0.0,-0.5749872579001019,0.03384620285423037,0.8075305810397553
1.9446861743927002,0.11190581936148891,-0.33571745808446674,0.0,-0.5749872579001019,0.03384620285423037,0.8075305810397553
1.9493908882141113,0.11190581936148891,-0.33571745808446674,0.0,-0.5749872579001019,0.03384620285423037,0.8075305810397553
1.9565880298614502,0.11190581936148891,-0.33571745808446674,0.0,-0.5749872579001019,0.03384620285423037,0.8075305810397553
1.9599664211273193,0.11190581936148891,-0.33571745808446674,0.0,-0.5749872579001019,0.03384620285423037,0.8075305810397553
1.964855670928955,0.11190581936148891,-0.33571745808446674,0.0,-0.5749872579001019,0.03384620285423037,0.8075305810397553
1.9691791534423828,0.11190581936148891,-0.33571745808446674,0.0,-0.5749872579001019,0.03384620285423037,0.8075305810397553
1.9733102321624756,0.11190581936148891,-0.33571745808446674,0.0,-0.5749872579001019,0.03384620285423037,0.8075305810397553
1.9778001308441162,0.11190581936148891,-0.33571745808446674,0.0,-0.5749872579001019,0.03384620285423037,0.8075305810397553
1.9829230308532715,0.0,-0.11190581936148891,0.0,-0.5789691641182466,0.03384620285423037,0.8075305810397553
1.9887545108795166,0.0,-0.11190581936148891,0.0,-0.5789691641182466,0.03384620285423037,0.8075305810397553
1.9931724071502686,0.0,-0.11190581936148891,0.0,-0.5789691641182466,0.03384620285423037,0.8075305810397553
1.9977912902832031,0.0,-0.11190581936148891,0.0,-0.5789691641182466,0.03384620285423037,0.8075305810397553
2.001086473464966,0.0,-0.11190581936148891,0.0,-0.5789691641182466,0.03384620285423037,0.8075305810397553
2.005383253097534,0.0,-0.11190581936148891,0.0,-0.5789691641182466,0.03384620285423037,0.8075305810397553
2.009653091430664,0.0,-0.11190581936148891,0.0,-0.5789691641182466,0.03384620285423037,0.8075305810397553
2.014671564102173,0.0,-0.11190581936148891,0.0,-0.5749872579001019,0.03384620285423037,0.8075305810397553
2.0221142768859863,0.0,-0.11190581936148891,0.0,-0.5749872579001019,0.03384620285423037,0.8075305810397553
2.0271270275115967,0.0,-0.11190581936148891,0.0,-0.5749872579001019,0.03384620285423037,0.8075305810397553
2.0308220386505127,-0.22381163872297782,0.0,0.0,-0.5749872579001019,0.03384620285423037,0.8075305810397553
2.0387463569641113,-0.22381163872297782,0.0,0.0,-0.5749872579001019,0.03384620285423037,0.8075305810397553
2.043250799179077,-0.22381163872297782,0.0,0.0,-0.5749872579001019,0.03384620285423037,0.8075305810397553
2.047600030899048,-0.22381163872297782,0.0,0.0,-0.5749872579001019,0.03384620285423037,0.8075305810397553
2.0520458221435547,-0.22381163872297782,0.0,0.0,-0.5749872579001019,0.03384620285423037,0.8075305810397553
2.056384801864624,-0.22381163872297782,0.0,0.0,-0.5749872579001019,0.03384620285423037,0.8075305810397553
2.0597832202911377,-0.22381163872297782,0.0,0.0,-0.5749872579001019,0.03384620285423037,0.8075305810397553
2.064103841781616,-0.22381163872297782,0.0,0.0,-0.5749872579001019,0.03384620285423037,0.8075305810397553
2.0685601234436035,-0.22381163872297782,0.0,0.0,-0.5749872579001019,0.03384620285423037,0.8075305810397553
2.0731356143951416,-0.22381163872297782,0.0,0.0,-0.5749872579001019,0.03384620285423037,0.8075305810397553
2.077772617340088,-0.22381163872297782,0.0,0.0,-0.5789691641182466,0.03384620285423037,0.8075305810397553
2.088808298110962,0.11190581936148891,0.11190581936148891,0.0,-0.5789691641182466,0.03384620285423037,0.8075305810397553
2.093773126602173,0.11190581936148891,0.11190581936148891,0.0,-0.5789691641182466,0.03384620285423037,0.8075305810397553
2.0986874103546143,0.11190581936148891,0.11190581936148891,0.0,-0.5789691641182466,0.03384620285423037,0.8075305810397553
2.1040217876434326,0.11190581936148891,0.11190581936148891,0.0,-0.5789691641182466,0.03384620285423037,0.8075305810397553
2.1088616847991943,0.11190581936148891,0.11190581936148891,0.0,-0.5789691641182466,0.03384620285423037,0.8075305810397553
2.11269211769104,0.11190581936148891,0.11190581936148891,0.0,-0.5749872579001019,0.03384620285423037,0.8075305810397553
2.119647979736328,0.11190581936148891,0.11190581936148891,0.0,-0.5749872579001019,0.03384620285423037,0.8075305810397553
2.124133348464966,0.11190581936148891,0.11190581936148891,0.0,-0.5749872579001019,0.03384620285423037,0.8075305810397553
2.1288013458251953,0.0,0.11190581936148891,0.0,-0.5749872579001019,0.03384620285423037,0.8075305810397553
2.136436939239502,0.0,0.11190581936148891,0.0,-0.5749872579001019,0.03384620285423037,0.8075305810397553
2.139498710632324,0.0,0.11190581936148891,0.0,-0.5749872579001019,0.03384620285423037,0.8075305810397553
2.144005060195923,0.0,0.11190581936148891,0.0,-0.5789691641182466,0.03384620285423037,0.8039468654434251
2.1501288414001465,0.0,0.11190581936148891,0.0,-0.5789691641182466,0.03384620285423037,0.8039468654434251
2.1548666954040527,0.0,0.11190581936148891,0.0,-0.5789691641182466,0.03384620285423037,0.8039468654434251
2.1594653129577637,0.0,0.11190581936148891,0.0,-0.5789691641182466,0.03384620285423037,0.8039468654434251
2.1642982959747314,0.0,0.11190581936148891,0.0,-0.5789691641182466,0.03384620285423037,0.8039468654434251
2.168861150741577,0.0,0.11190581936148891,0.0,-0.5789691641182466,0.03384620285423037,0.8039468654434251
2.1734302043914795,0.0,0.11190581936148891,0.0,-0.5749872579001019,0.03384620285423037,0.8075305810397553
2.1809113025665283,-0.11190581936148891,0.44762327744595565,0.0,-0.5749872579001019,0.03384620285423037,0.8075305810397553
2.188600540161133,-0.11190581936148891,0.44762327744595565,0.0,-0.5749872579001019,0.03384620285423037,0.8075305810397553
2.192918539047241,-0.11190581936148891,0.44762327744595565,0.0,-0.5749872579001019,0.03384620285423037,0.8075305810397553
2.197252035140991,-0.11190581936148891,0.44762327744595565,0.0,-0.5749872579001019,0.03384620285423037,0.8075305810397553
2.2002627849578857,-0.11190581936148891,0.44762327744595565,0.0,-0.5749872579001019,0.03384620285423037,0.8075305810397553
2.204324245452881,-0.11190581936148891,0.44762327744595565,0.0,-0.5749872579001019,0.03384620285423037,0.8075305810397553
2.208437919616699,-0.11190581936148891,0.44762327744595565,0.0,-0.5749872579001019,0.03384620285423037,0.8075305810397553
2.2147271633148193,-0.11190581936148891,0.44762327744595565,0.0,-0.5749872579001019,0.03384620285423037,0.8075305810397553
2.2181215286254883,-0.11190581936148891,0.44762327744595565,0.0,-0.5749872579001019,0.03384620285423037,0.8075305810397553
2.2222402095794678,-0.11190581936148891,0.44762327744595565,0.0,-0.5749872579001019,0.03384620285423037,0.8075305810397553
2.226999044418335,-0.11190581936148891,0.44762327744595565,0.0,-0.5749872579001019,0.03384620285423037,0.8075305810397553
2.230571746826172,0.11190581936148891,-0.22381163872297782,0.11190581936148891,-0.5749872579001019,0.03384620285423037,0.8075305810397553
2.2384259700775146,0.11190581936148891,-0.22381163872297782,0.11190581936148891,-0.5749872579001019,0.03384620285423037,0.8075305810397553
2.246522903442383,0.11190581936148891,-0.22381163872297782,0.11190581936148891,-0.5749872579001019,0.03384620285423037,0.8075305810397553
2.2498600482940674,0.11190581936148891,-0.22381163872297782,0.11190581936148891,-0.5749872579001019,0.03384620285423037,0.8075305810397553
2.253929376602173,0.11190581936148891,-0.22381163872297782,0.11190581936148891,-0.5749872579001019,0.03384620285423037,0.8075305810397553
2.258265256881714,0.11190581936148891,-0.22381163872297782,0.11190581936148891,-0.5749872579001019,0.03384620285423037,0.8075305810397553
2.2627296447753906,0.11190581936148891,-0.22381163872297782,0.11190581936148891,-0.5749872579001019,0.03384620285423037,0.8075305810397553
2.2668848037719727,0.11190581936148891,-0.22381163872297782,0.11190581936148891,-0.5749872579001019,0.03384620285423037,0.8075305810397553
2.26985502243042,0.11190581936148891,-0.22381163872297782,0.11190581936148891,-0.5749872579001019,0.03384620285423037,0.8075305810397553
2.2746307849884033,0.11190581936148891,-0.22381163872297782,0.11190581936148891,-0.5749872579001019,0.03384620285423037,0.8075305810397553
2.2784550189971924,-0.11190581936148891,0.0,-0.11190581936148891,-0.5749872579001019,0.03384620285423037,0.8075305810397553
2.2860844135284424,-0.11190581936148891,0.0,-0.11190581936148891,-0.5749872579001019,0.03384620285423037,0.8075305810397553
2.2895679473876953,-0.11190581936148891,0.0,-0.11190581936148891,-0.5749872579001019,0.03384620285423037,0.8075305810397553
2.2941484451293945,-0.11190581936148891,0.0,-0.11190581936148891,-0.5749872579001019,0.03384620285423037,0.8075305810397553
2.29868483543396,-0.11190581936148891,0.0,-0.11190581936148891,-0.5749872579001019,0.03384620285423037,0.8075305810397553
2.3027455806732178,-0.11190581936148891,0.0,-0.11190581936148891,-0.5789691641182466,0.03384620285423037,0.8039468654434251
2.3081820011138916,-0.11190581936148891,0.0,-0.11190581936148891,-0.5789691641182466,0.03384620285423037,0.8039468654434251
2.3124184608459473,-0.11190581936148891,0.0,-0.11190581936148891,-0.5789691641182466,0.03384620285423037,0.8039468654434251
2.316642999649048,-0.11190581936148891,0.0,-0.11190581936148891,-0.5789691641182466,0.03384620285423037,0.8039468654434251
2.319606304168701,-0.11190581936148891,0.0,-0.11190581936148891,-0.5789691641182466,0.03384620285423037,0.8039468654434251
2.32364821434021,-0.11190581936148891,0.0,-0.11190581936148891,-0.5789691641182466,0.03384620285423037,0.8039468654434251
2.3278305530548096,-0.11190581936148891,0.33571745808446674,0.0,-0.5789691641182466,0.03384620285423037,0.8039468654434251
2.3352932929992676,-0.11190581936148891,0.33571745808446674,0.0,-0.5749872579001019,0.029864296636085627,0.8075305810397553
2.3403849601745605,-0.11190581936148891,0.33571745808446674,0.0,-0.5749872579001019,0.029864296636085627,0.8075305810397553
2.345076322555542,-0.11190581936148891,0.33571745808446674,0.0,-0.5749872579001019,0.029864296636085627,0.8075305810397553
2.3487300872802734,-0.11190581936148891,0.33571745808446674,0.0,-0.5749872579001019,0.029864296636085627,0.8075305810397553
2.3534984588623047,-0.11190581936148891,0.33571745808446674,0.0,-0.5749872579001019,0.029864296636085627,0.8075305810397553
2.3580496311187744,-0.11190581936148891,0.33571745808446674,0.0,-0.5749872579001019,0.029864296636085627,0.8075305810397553
2.362558126449585,-0.11190581936148891,0.33571745808446674,0.0,-0.5749872579001019,0.029864296636085627,0.8075305810397553
2.3668553829193115,-0.11190581936148891,0.33571745808446674,0.0,-0.5749872579001019,0.03384620285423037,0.8075305810397553
2.3708980083465576,-0.11190581936148891,0.33571745808446674,0.0,-0.5749872579001019,0.03384620285423037,0.8075305810397553
2.3749582767486572,-0.11190581936148891,0.33571745808446674,0.0,-0.5749872579001019,0.03384620285423037,0.8075305810397553
2.3785922527313232,0.11190581936148891,-9.064371368280602,0.11190581936148891,-0.5749872579001019,0.03384620285423037,0.8075305810397553
2.3856143951416016,0.11190581936148891,-9.064371368280602,0.11190581936148891,-0.5749872579001019,0.03384620285423037,0.8075305810397553
2.3886406421661377,0.11190581936148891,-9.064371368280602,0.11190581936148891,-0.5749872579001019,0.03384620285423037,0.8075305810397553
2.392864942550659,0.11190581936148891,-9.064371368280602,0.11190581936148891,-0.5749872579001019,0.03384620285423037,0.8075305810397553
2.397428512573242,0.11190581936148891,-9.064371368280602,0.11190581936148891,-0.5749872579001019,0.03384620285423037,0.8075305810397553
2.4008736610412598,0.11190581936148891,-9.064371368280602,0.11190581936148891,-0.5670234454638124,0.03384620285423037,0.8158925840978593
2.4082837104797363,0.11190581936148891,-9.064371368280602,0.11190581936148891,-0.5670234454638124,0.03384620285423037,0.8158925840978593
2.4131674766540527,0.11190581936148891,-9.064371368280602,0.11190581936148891,-0.5670234454638124,0.03384620285423037,0.8158925840978593
2.417569637298584,0.11190581936148891,-9.064371368280602,0.11190581936148891,-0.5670234454638124,0.03384620285423037,0.8158925840978593
2.421706199645996,0.11190581936148891,-9.064371368280602,0.11190581936148891,-0.5670234454638124,0.03384620285423037,0.8158925840978593
2.426050901412964,0.11190581936148891,-9.064371368280602,0.11190581936148891,-0.5670234454638124,0.03384620285423037,0.8158925840978593
2.429351806640625,0.0,-16.002532168692916,0.22381163872297782,-0.5865347859327217,0.029864296636085627,0.7923993374108053
2.4368956089019775,0.0,-16.002532168692916,0.22381163872297782,-0.5865347859327217,0.029864296636085627,0.7923993374108053
2.439932346343994,0.0,-16.002532168692916,0.22381163872297782,-0.5865347859327217,0.029864296636085627,0.7923993374108053
2.44400691986084,0.0,-16.002532168692916,0.22381163872297782,-0.5865347859327217,0.029864296636085627,0.7923993374108053
2.4482614994049072,0.0,-16.002532168692916,0.22381163872297782,-0.5865347859327217,0.029864296636085627,0.7923993374108053
2.451270580291748,0.0,-16.002532168692916,0.22381163872297782,-0.5865347859327217,0.029864296636085627,0.7923993374108053
2.4556872844696045,0.0,-16.002532168692916,0.22381163872297782,-0.5865347859327217,0.029864296636085627,0.7923993374108053
2.4591073989868164,0.0,-16.002532168692916,0.22381163872297782,-0.5865347859327217,0.029864296636085627,0.7923993374108053
2.4639432430267334,0.0,-16.002532168692916,0.22381163872297782,-0.5710053516819572,0.03384620285423037,0.8115124872579
2.4705007076263428,0.0,-16.002532168692916,0.22381163872297782,-0.5710053516819572,0.03384620285423037,0.8115124872579
2.474931001663208,0.0,-16.002532168692916,0.22381163872297782,-0.5710053516819572,0.03384620285423037,0.8115124872579
2.47856068611145,0.11190581936148891,-3.3571745808446676,0.11190581936148891,-0.5710053516819572,0.03384620285423037,0.8115124872579
2.4863569736480713,0.11190581936148891,-3.3571745808446676,0.11190581936148891,-0.5710053516819572,0.03384620285423037,0.8115124872579
2.4895572662353516,0.11190581936148891,-3.3571745808446676,0.11190581936148891,-0.5710053516819572,0.03384620285423037,0.8115124872579
2.493617057800293,0.11190581936148891,-3.3571745808446676,0.11190581936148891,-0.5710053516819572,0.03384620285423037,0.8115124872579
2.4967315196990967,0.11190581936148891,-3.3571745808446676,0.11190581936148891,-0.5789691641182466,0.03384620285423037,0.8039468654434251
2.5007596015930176,0.11190581936148891,-3.3571745808446676,0.11190581936148891,-0.5789691641182466,0.03384620285423037,0.8039468654434251
2.5048069953918457,0.11190581936148891,-3.3571745808446676,0.11190581936148891,-0.5789691641182466,0.03384620285423037,0.8039468654434251
2.508086681365967,0.11190581936148891,-3.3571745808446676,0.11190581936148891,-0.5789691641182466,0.03384620285423037,0.8039468654434251
2.5125391483306885,0.11190581936148891,-3.3571745808446676,0.11190581936148891,-0.5789691641182466,0.03384620285423037,0.8039468654434251
2.5170106887817383,0.11190581936148891,-3.3571745808446676,0.11190581936148891,-0.5789691641182466,0.03384620285423037,0.8039468654434251
2.521303415298462,0.11190581936148891,-3.3571745808446676,0.11190581936148891,-0.5789691641182466,0.03384620285423037,0.8039468654434251
2.525860071182251,0.11190581936148891,-3.3571745808446676,0.11190581936148891,-0.5789691641182466,0.03384620285423037,0.8039468654434251
2.5296454429626465,-0.22381163872297782,8.840559729557624,0.0,-0.5710053516819572,0.03384620285423037,0.8115124872579
2.5385072231292725,-0.22381163872297782,8.840559729557624,0.0,-0.5710053516819572,0.03384620285423037,0.8115124872579
2.542598247528076,-0.22381163872297782,8.840559729557624,0.0,-0.5710053516819572,0.03384620285423037,0.8115124872579
2.5469424724578857,-0.22381163872297782,8.840559729557624,0.0,-0.5710053516819572,0.03384620285423037,0.8115124872579
2.550011157989502,-0.22381163872297782,8.840559729557624,0.0,-0.5710053516819572,0.03384620285423037,0.8115124872579
2.5540554523468018,-0.22381163872297782,8.840559729557624,0.0,-0.5710053516819572,0.03384620285423037,0.8115124872579
2.5574514865875244,-0.22381163872297782,8.840559729557624,0.0,-0.5710053516819572,0.03384620285423037,0.8115124872579
2.560920476913452,-0.22381163872297782,8.840559729557624,0.0,-0.5749872579001019,0.03384620285423037,0.8075305810397553
2.5678553581237793,-0.22381163872297782,8.840559729557624,0.0,-0.5749872579001019,0.03384620285423037,0.8075305810397553
2.572298049926758,-0.22381163872297782,8.840559729557624,0.0,-0.5749872579001019,0.03384620285423037,0.8075305810397553
2.5768816471099854,0.11190581936148891,-1.2309640129763781,0.0,-0.5749872579001019,0.03384620285423037,0.8075305810397553
2.5845541954040527,0.11190581936148891,-1.2309640129763781,0.0,-0.5749872579001019,0.03384620285423037,0.8075305810397553
2.588148593902588,0.11190581936148891,-1.2309640129763781,0.0,-0.5749872579001019,0.03384620285423037,0.8075305810397553
2.5924577713012695,0.11190581936148891,-1.2309640129763781,0.0,-0.5789691641182466,0.03384620285423037,0.8039468654434251
2.5987508296966553,0.11190581936148891,-1.2309640129763781,0.0,-0.5789691641182466,0.03384620285423037,0.8039468654434251
2.6028265953063965,0.11190581936148891,-1.2309640129763781,0.0,-0.5789691641182466,0.03384620285423037,0.8039468654434251
2.606889009475708,0.11190581936148891,-1.2309640129763781,0.0,-0.5789691641182466,0.03384620285423037,0.8039468654434251
2.6099727153778076,0.11190581936148891,-1.2309640129763781,0.0,-0.5789691641182466,0.03384620285423037,0.8039468654434251
2.6141529083251953,0.11190581936148891,-1.2309640129763781,0.0,-0.5789691641182466,0.03384620285423037,0.8039468654434251
2.617551565170288,0.11190581936148891,-1.2309640129763781,0.0,-0.5789691641182466,0.03384620285423037,0.8039468654434251
2.6215944290161133,0.11190581936148891,-1.2309640129763781,0.0,-0.5789691641182466,0.03384620285423037,0.8039468654434251
2.62506103515625,-0.33571745808446674,5.371479329351468,0.11190581936148891,-0.5749872579001019,0.03384620285423037,0.8119106778797145
2.633096218109131,-0.33571745808446674,5.371479329351468,0.11190581936148891,-0.5749872579001019,0.03384620285423037,0.8119106778797145
2.638110637664795,-0.33571745808446674,5.371479329351468,0.11190581936148891,-0.5749872579001019,0.03384620285423037,0.8119106778797145
2.642866373062134,-0.33571745808446674,5.371479329351468,0.11190581936148891,-0.5749872579001019,0.03384620285423037,0.8119106778797145
2.6472721099853516,-0.33571745808446674,5.371479329351468,0.11190581936148891,-0.5749872579001019,0.03384620285423037,0.8119106778797145
2.6512157917022705,-0.33571745808446674,5.371479329351468,0.11190581936148891,-0.5749872579001019,0.03384620285423037,0.8119106778797145
2.655327320098877,-0.33571745808446674,5.371479329351468,0.11190581936148891,-0.5749872579001019,0.03384620285423037,0.8039468654434251
2.6596908569335938,-0.33571745808446674,5.371479329351468,0.11190581936148891,-0.5749872579001019,0.03384620285423037,0.8039468654434251
2.66398549079895,-0.33571745808446674,5.371479329351468,0.11190581936148891,-0.5749872579001019,0.03384620285423037,0.8039468654434251
2.6675186157226562,-0.33571745808446674,5.371479329351468,0.11190581936148891,-0.5749872579001019,0.03384620285423037,0.8039468654434251
2.6715798377990723,-0.33571745808446674,5.371479329351468,0.11190581936148891,-0.5749872579001019,0.03384620285423037,0.8039468654434251
2.6756701469421387,-0.33571745808446674,5.371479329351468,0.11190581936148891,-0.5749872579001019,0.03384620285423037,0.8039468654434251
2.678990364074707,0.0,0.6714349161689335,0.11190581936148891,-0.5749872579001019,0.03384620285423037,0.8039468654434251
2.6866564750671387,0.0,0.6714349161689335,0.11190581936148891,-0.5749872579001019,0.03384620285423037,0.8039468654434251
2.6903040409088135,0.0,0.6714349161689335,0.11190581936148891,-0.5749872579001019,0.03384620285423037,0.8075305810397553
2.6981468200683594,0.0,0.6714349161689335,0.11190581936148891,-0.5749872579001019,0.03384620285423037,0.8075305810397553
2.702634811401367,0.0,0.6714349161689335,0.11190581936148891,-0.5749872579001019,0.03384620285423037,0.8075305810397553
2.7068839073181152,0.0,0.6714349161689335,0.11190581936148891,-0.5749872579001019,0.03384620285423037,0.8075305810397553
2.709897756576538,0.0,0.6714349161689335,0.11190581936148891,-0.5749872579001019,0.03384620285423037,0.8075305810397553
2.714223623275757,0.0,0.6714349161689335,0.11190581936148891,-0.5749872579001019,0.03384620285423037,0.8075305810397553
2.717740297317505,0.0,0.6714349161689335,0.11190581936148891,-0.5749872579001019,0.03384620285423037,0.8075305810397553
2.7208709716796875,0.0,0.6714349161689335,0.11190581936148891,-0.5749872579001019,0.03384620285423037,0.8075305810397553
2.726691484451294,0.0,0.6714349161689335,0.11190581936148891,-0.5749872579001019,0.03384620285423037,0.8075305810397553
2.7316079139709473,-0.22381163872297782,2.797645484037223,0.0,-0.5749872579001019,0.03384620285423037,0.8075305810397553
2.7357380390167236,-0.22381163872297782,2.797645484037223,0.0,-0.5749872579001019,0.03384620285423037,0.8075305810397553
2.739222526550293,-0.22381163872297782,2.797645484037223,0.0,-0.5749872579001019,0.03384620285423037,0.8075305810397553
2.7442195415496826,-0.22381163872297782,2.797645484037223,0.0,-0.5749872579001019,0.03384620285423037,0.8075305810397553
2.7484960556030273,-0.22381163872297782,2.797645484037223,0.0,-0.5749872579001019,0.03384620285423037,0.8075305810397553
2.753199815750122,-0.22381163872297782,2.797645484037223,0.0,-0.5789691641182466,0.03384620285423037,0.8039468654434251
2.759993314743042,-0.22381163872297782,2.797645484037223,0.0,-0.5789691641182466,0.03384620285423037,0.8039468654434251
2.7649364471435547,-0.22381163872297782,2.797645484037223,0.0,-0.5789691641182466,0.03384620285423037,0.8039468654434251
2.768571376800537,-0.22381163872297782,2.797645484037223,0.0,-0.5789691641182466,0.03384620285423037,0.8039468654434251
2.77331805229187,-0.22381163872297782,2.797645484037223,0.0,-0.5789691641182466,0.03384620285423037,0.8039468654434251
2.777912139892578,0.11190581936148891,1.1190581936148891,0.0,-0.5789691641182466,0.03384620285423037,0.8039468654434251
2.7848165035247803,0.11190581936148891,1.1190581936148891,0.0,-0.5749872579001019,0.03384620285423037,0.8075305810397553
2.789172887802124,0.11190581936148891,1.1190581936148891,0.0,-0.5749872579001019,0.03384620285423037,0.8075305810397553
2.7932441234588623,0.11190581936148891,1.1190581936148891,0.0,-0.5749872579001019,0.03384620285423037,0.8075305810397553
2.7975075244903564,0.11190581936148891,1.1190581936148891,0.0,-0.5749872579001019,0.03384620285423037,0.8075305810397553
2.8005762100219727,0.11190581936148891,1.1190581936148891,0.0,-0.5749872579001019,0.03384620285423037,0.8075305810397553
2.8050050735473633,0.11190581936148891,1.1190581936148891,0.0,-0.5749872579001019,0.03384620285423037,0.8075305810397553
2.80842661857605,0.11190581936148891,1.1190581936148891,0.0,-0.5749872579001019,0.03384620285423037,0.8075305810397553
2.8130431175231934,0.11190581936148891,1.1190581936148891,0.0,-0.5749872579001019,0.03384620285423037,0.8075305810397553
2.817127227783203,0.11190581936148891,1.1190581936148891,0.0,-0.5749872579001019,0.03384620285423037,0.8039468654434251
2.824789047241211,0.11190581936148891,1.1190581936148891,0.0,-0.5749872579001019,0.03384620285423037,0.8039468654434251
2.82818603515625,-0.11190581936148891,1.342869832337867,-0.11190581936148891,-0.5749872579001019,0.03384620285423037,0.8039468654434251
2.8357343673706055,-0.11190581936148891,1.342869832337867,-0.11190581936148891,-0.5749872579001019,0.03384620285423037,0.8039468654434251
2.8387928009033203,-0.11190581936148891,1.342869832337867,-0.11190581936148891,-0.5749872579001019,0.03384620285423037,0.8039468654434251
2.8428537845611572,-0.11190581936148891,1.342869832337867,-0.11190581936148891,-0.5749872579001019,0.03384620285423037,0.8039468654434251
2.847018241882324,-0.11190581936148891,1.342869832337867,-0.11190581936148891,-0.5749872579001019,0.03384620285423037,0.8039468654434251
2.8501458168029785,-0.11190581936148891,1.342869832337867,-0.11190581936148891,-0.5789691641182466,0.03384620285423037,0.8075305810397553
2.8560268878936768,-0.11190581936148891,1.342869832337867,-0.11190581936148891,-0.5789691641182466,0.03384620285423037,0.8075305810397553
2.8598380088806152,-0.11190581936148891,1.342869832337867,-0.11190581936148891,-0.5789691641182466,0.03384620285423037,0.8075305810397553
2.864734411239624,-0.11190581936148891,1.342869832337867,-0.11190581936148891,-0.5789691641182466,0.03384620285423037,0.8075305810397553
2.8683276176452637,-0.11190581936148891,1.342869832337867,-0.11190581936148891,-0.5789691641182466,0.03384620285423037,0.8075305810397553
2.8728134632110596,-0.11190581936148891,1.342869832337867,-0.11190581936148891,-0.5789691641182466,0.03384620285423037,0.8075305810397553
2.877471923828125,-0.11190581936148891,0.7833407355304224,0.11190581936148891,-0.5749872579001019,0.03384620285423037,0.8039468654434251
2.886737823486328,-0.11190581936148891,0.7833407355304224,0.11190581936148891,-0.5749872579001019,0.03384620285423037,0.8039468654434251
2.8899433612823486,-0.11190581936148891,0.7833407355304224,0.11190581936148891,-0.5749872579001019,0.03384620285423037,0.8039468654434251
2.894124984741211,-0.11190581936148891,0.7833407355304224,0.11190581936148891,-0.5749872579001019,0.03384620285423037,0.8039468654434251
2.897351026535034,-0.11190581936148891,0.7833407355304224,0.11190581936148891,-0.5749872579001019,0.03384620285423037,0.8039468654434251
2.901139736175537,-0.11190581936148891,0.7833407355304224,0.11190581936148891,-0.5749872579001019,0.03384620285423037,0.8039468654434251
2.9051947593688965,-0.11190581936148891,0.7833407355304224,0.11190581936148891,-0.5749872579001019,0.03384620285423037,0.8039468654434251
2.908205509185791,-0.11190581936148891,0.7833407355304224,0.11190581936148891,-0.5749872579001019,0.03384620285423037,0.8039468654434251
2.9122908115386963,-0.11190581936148891,0.7833407355304224,0.11190581936148891,-0.5749872579001019,0.03384620285423037,0.8075305810397553
2.9189140796661377,-0.11190581936148891,0.7833407355304224,0.11190581936148891,-0.5749872579001019,0.03384620285423037,0.8075305810397553
2.9237377643585205,-0.11190581936148891,0.7833407355304224,0.11190581936148891,-0.5749872579001019,0.03384620285423037,0.8075305810397553
2.9277737140655518,-0.11190581936148891,0.5595290968074446,0.0,-0.5749872579001019,0.03384620285423037,0.8075305810397553
2.935497522354126,-0.11190581936148891,0.5595290968074446,0.0,-0.5749872579001019,0.03384620285423037,0.8075305810397553
2.9389681816101074,-0.11190581936148891,0.5595290968074446,0.0,-0.5749872579001019,0.03384620285423037,0.8075305810397553
2.94315505027771,-0.11190581936148891,0.5595290968074446,0.0,-0.5749872579001019,0.03384620285423037,0.8075305810397553
2.9476897716522217,-0.11190581936148891,0.5595290968074446,0.0,-0.5749872579001019,0.03384620285423037,0.8075305810397553
2.9520163536071777,-0.11190581936148891,0.5595290968074446,0.0,-0.5749872579001019,0.03384620285423037,0.8075305810397553
2.9561262130737305,-0.11190581936148891,0.5595290968074446,0.0,-0.5749872579001019,0.03384620285423037,0.8075305810397553
2.9590888023376465,-0.11190581936148891,0.5595290968074446,0.0,-0.5749872579001019,0.03384620285423037,0.8075305810397553
2.9631552696228027,-0.11190581936148891,0.5595290968074446,0.0,-0.5749872579001019,0.03384620285423037,0.8075305810397553
2.96736478805542,-0.11190581936148891,0.5595290968074446,0.0,-0.5749872579001019,0.03384620285423037,0.8075305810397553
2.9714598655700684,-0.11190581936148891,0.5595290968074446,0.0,-0.5749872579001019,0.03384620285423037,0.8075305810397553
2.9760067462921143,0.0,0.6714349161689335,0.0,-0.5749872579001019,0.03384620285423037,0.8075305810397553
2.985565662384033,0.0,0.6714349161689335,0.0,-0.5749872579001019,0.03384620285423037,0.8075305810397553
2.9890990257263184,0.0,0.6714349161689335,0.0,-0.5749872579001019,0.03384620285423037,0.8075305810397553
2.993380546569824,0.0,0.6714349161689335,0.0,-0.5749872579001019,0.03384620285423037,0.8075305810397553
2.9973409175872803,0.0,0.6714349161689335,0.0,-0.5749872579001019,0.03384620285423037,0.8075305810397553
3.001821517944336,0.0,0.6714349161689335,0.0,-0.5749872579001019,0.03384620285423037,0.8075305810397553
3.0059359073638916,0.0,0.6714349161689335,0.0,-0.5749872579001019,0.03384620285423037,0.8075305810397553
3.0089058876037598,0.0,0.6714349161689335,0.0,-0.5789691641182466,0.03384620285423037,0.8039468654434251
3.0147595405578613,0.0,0.6714349161689335,0.0,-0.5789691641182466,0.03384620285423037,0.8039468654434251
3.0179283618927,0.0,0.6714349161689335,0.0,-0.5789691641182466,0.03384620285423037,0.8039468654434251
3.0219995975494385,0.0,0.6714349161689335,0.0,-0.5789691641182466,0.03384620285423037,0.8039468654434251
3.02624773979187,0.0,0.6714349161689335,0.0,-0.5789691641182466,0.03384620285423037,0.8039468654434251
3.0314981937408447,-0.11190581936148891,0.7833407355304224,0.0,-0.5789691641182466,0.03384620285423037,0.8039468654434251
3.035921573638916,-0.11190581936148891,0.7833407355304224,0.0,-0.5789691641182466,0.03384620285423037,0.8039468654434251
3.0395302772521973,-0.11190581936148891,0.7833407355304224,0.0,-0.5749872579001019,0.03384620285423037,0.8075305810397553
3.0474846363067627,-0.11190581936148891,0.7833407355304224,0.0,-0.5749872579001019,0.03384620285423037,0.8075305810397553
3.0524322986602783,-0.11190581936148891,0.7833407355304224,0.0,-0.5749872579001019,0.03384620285423037,0.8075305810397553
3.057283639907837,-0.11190581936148891,0.7833407355304224,0.0,-0.5749872579001019,0.03384620285423037,0.8075305810397553
3.0617663860321045,-0.11190581936148891,0.7833407355304224,0.0,-0.5749872579001019,0.03384620285423037,0.8075305810397553
3.0662314891815186,-0.11190581936148891,0.7833407355304224,0.0,-0.5749872579001019,0.03384620285423037,0.8075305810397553
3.070244312286377,-0.11190581936148891,0.7833407355304224,0.0,-0.5749872579001019,0.03384620285423037,0.8075305810397553
3.073261022567749,-0.11190581936148891,0.7833407355304224,0.0,-0.5789691641182466,0.03384620285423037,0.8075305810397553
3.0782313346862793,-0.11190581936148891,-0.11190581936148891,0.0,-0.5789691641182466,0.03384620285423037,0.8075305810397553
3.085660457611084,-0.11190581936148891,-0.11190581936148891,0.0,-0.5789691641182466,0.03384620285423037,0.8075305810397553
3.0891876220703125,-0.11190581936148891,-0.11190581936148891,0.0,-0.5789691641182466,0.03384620285423037,0.8075305810397553
3.093587875366211,-0.11190581936148891,-0.11190581936148891,0.0,-0.5789691641182466,0.03384620285423037,0.8075305810397553
3.097593307495117,-0.11190581936148891,-0.11190581936148891,0.0,-0.5789691641182466,0.03384620285423037,0.8075305810397553
3.1023361682891846,-0.11190581936148891,-0.11190581936148891,0.0,-0.5789691641182466,0.03384620285423037,0.8039468654434251
3.1085314750671387,-0.11190581936148891,-0.11190581936148891,0.0,-0.5789691641182466,0.03384620285423037,0.8039468654434251
3.113018274307251,-0.11190581936148891,-0.11190581936148891,0.0,-0.5789691641182466,0.03384620285423037,0.8039468654434251
3.117124080657959,-0.11190581936148891,-0.11190581936148891,0.0,-0.5789691641182466,0.03384620285423037,0.8039468654434251
3.121584415435791,-0.11190581936148891,-0.11190581936148891,0.0,-0.5789691641182466,0.03384620285423037,0.8039468654434251
3.125917434692383,-0.11190581936148891,-0.11190581936148891,0.0,-0.5789691641182466,0.03384620285423037,0.8039468654434251
3.1319639682769775,0.11190581936148891,0.11190581936148891,0.11190581936148891,-0.5789691641182466,0.03384620285423037,0.8039468654434251
3.136361837387085,0.11190581936148891,0.11190581936148891,0.11190581936148891,-0.5789691641182466,0.03384620285423037,0.8039468654434251
3.1430087089538574,0.11190581936148891,0.11190581936148891,0.11190581936148891,-0.5789691641182466,0.03384620285423037,0.8039468654434251
3.146968364715576,0.11190581936148891,0.11190581936148891,0.11190581936148891,-0.5789691641182466,0.03384620285423037,0.8039468654434251
3.151542901992798,0.11190581936148891,0.11190581936148891,0.11190581936148891,-0.5789691641182466,0.03384620285423037,0.8039468654434251
3.155906915664673,0.11190581936148891,0.11190581936148891,0.11190581936148891,-0.5789691641182466,0.03384620285423037,0.8039468654434251
3.160271644592285,0.11190581936148891,0.11190581936148891,0.11190581936148891,-0.5789691641182466,0.03384620285423037,0.8039468654434251
3.164989471435547,0.11190581936148891,0.11190581936148891,0.11190581936148891,-0.5789691641182466,0.03384620285423037,0.8039468654434251
3.1685683727264404,0.11190581936148891,0.11190581936148891,0.11190581936148891,-0.5749872579001019,0.03384620285423037,0.8039468654434251
3.1763675212860107,0.0,0.44762327744595565,0.0,-0.5749872579001019,0.03384620285423037,0.8039468654434251
3.184201955795288,0.0,0.44762327744595565,0.0,-0.5749872579001019,0.03384620285423037,0.8039468654434251
3.1875662803649902,0.0,0.44762327744595565,0.0,-0.5749872579001019,0.03384620285423037,0.8039468654434251
3.191789150238037,0.0,0.44762327744595565,0.0,-0.5749872579001019,0.03384620285423037,0.8039468654434251
3.196073532104492,0.0,0.44762327744595565,0.0,-0.5749872579001019,0.03384620285423037,0.8039468654434251
3.199568748474121,0.0,0.44762327744595565,0.0,-0.5789691641182466,0.03384620285423037,0.8039468654434251
3.20674204826355,0.0,0.44762327744595565,0.0,-0.5789691641182466,0.03384620285423037,0.8039468654434251
3.2110915184020996,0.0,0.44762327744595565,0.0,-0.5789691641182466,0.03384620285423037,0.8039468654434251
3.2156622409820557,0.0,0.44762327744595565,0.0,-0.5789691641182466,0.03384620285423037,0.8039468654434251
3.219217538833618,0.0,0.44762327744595565,0.0,-0.5789691641182466,0.03384620285423037,0.8039468654434251
3.2238683700561523,0.0,0.44762327744595565,0.0,-0.5789691641182466,0.03384620285423037,0.8039468654434251
3.2274692058563232,-0.11190581936148891,-0.22381163872297782,0.0,-0.5789691641182466,0.03384620285423037,0.8075305810397553
3.2382588386535645,-0.11190581936148891,-0.22381163872297782,0.0,-0.5789691641182466,0.03384620285423037,0.8075305810397553
3.242696523666382,-0.11190581936148891,-0.22381163872297782,0.0,-0.5789691641182466,0.03384620285423037,0.8075305810397553
3.2468361854553223,-0.11190581936148891,-0.22381163872297782,0.0,-0.5789691641182466,0.03384620285423037,0.8075305810397553
3.2513015270233154,-0.11190581936148891,-0.22381163872297782,0.0,-0.5789691641182466,0.03384620285423037,0.8075305810397553
3.2557053565979004,-0.11190581936148891,-0.22381163872297782,0.0,-0.5789691641182466,0.03384620285423037,0.8075305810397553
3.2589588165283203,-0.11190581936148891,-0.22381163872297782,0.0,-0.5789691641182466,0.03384620285423037,0.8075305810397553
3.2633845806121826,-0.11190581936148891,-0.22381163872297782,0.0,-0.5749872579001019,0.03384620285423037,0.8039468654434251
3.269155502319336,-0.11190581936148891,-0.22381163872297782,0.0,-0.5749872579001019,0.03384620285423037,0.8039468654434251
3.273740768432617,-0.11190581936148891,-0.22381163872297782,0.0,-0.5749872579001019,0.03384620285423037,0.8039468654434251
3.2773306369781494,0.0,0.0,0.0,-0.5749872579001019,0.03384620285423037,0.8039468654434251
3.2853567600250244,0.0,0.0,0.0,-0.5749872579001019,0.03384620285423037,0.8039468654434251
3.288860321044922,0.0,0.0,0.0,-0.5749872579001019,0.03384620285423037,0.8039468654434251
3.2934515476226807,0.0,0.0,0.0,-0.5749872579001019,0.03384620285423037,0.8039468654434251
3.296870470046997,0.0,0.0,0.0,-0.5749872579001019,0.03384620285423037,0.8075305810397553
3.303823709487915,0.0,0.0,0.0,-0.5749872579001019,0.03384620285423037,0.8075305810397553
3.3072214126586914,0.0,0.0,0.0,-0.5749872579001019,0.03384620285423037,0.8075305810397553
3.31156063079834,0.0,0.0,0.0,-0.5749872579001019,0.03384620285423037,0.8075305810397553
3.3159706592559814,0.0,0.0,0.0,-0.5749872579001019,0.03384620285423037,0.8075305810397553
3.3192741870880127,0.0,0.0,0.0,-0.5749872579001019,0.03384620285423037,0.8075305810397553
3.323699712753296,0.0,0.0,0.0,-0.5749872579001019,0.03384620285423037,0.8075305810397553
3.327260732650757,-0.11190581936148891,0.44762327744595565,0.0,-0.5789691641182466,0.03384620285423037,0.8075305810397553
3.337622880935669,-0.11190581936148891,0.44762327744595565,0.0,-0.5789691641182466,0.03384620285423037,0.8075305810397553
3.342259407043457,-0.11190581936148891,0.44762327744595565,0.0,-0.5789691641182466,0.03384620285423037,0.8075305810397553
3.3468594551086426,-0.11190581936148891,0.44762327744595565,0.0,-0.5789691641182466,0.03384620285423037,0.8075305810397553
3.350897789001465,-0.11190581936148891,0.44762327744595565,0.0,-0.5789691641182466,0.03384620285423037,0.8075305810397553
3.3555870056152344,-0.11190581936148891,0.44762327744595565,0.0,-0.5789691641182466,0.03384620285423037,0.8075305810397553
3.359731435775757,-0.11190581936148891,0.44762327744595565,0.0,-0.5749872579001019,0.03384620285423037,0.8075305810397553
3.366818904876709,-0.11190581936148891,0.44762327744595565,0.0,-0.5749872579001019,0.03384620285423037,0.8075305810397553
3.3712170124053955,-0.11190581936148891,0.44762327744595565,0.0,-0.5749872579001019,0.03384620285423037,0.8075305810397553
3.3756346702575684,0.0,-0.22381163872297782,0.11190581936148891,-0.5749872579001019,0.03384620285423037,0.8075305810397553
3.3836686611175537,0.0,-0.22381163872297782,0.11190581936148891,-0.5749872579001019,0.03384620285423037,0.8075305810397553
3.3873279094696045,0.0,-0.22381163872297782,0.11190581936148891,-0.5749872579001019,0.03384620285423037,0.8075305810397553
3.3921289443969727,0.0,-0.22381163872297782,0.11190581936148891,-0.5749872579001019,0.03384620285423037,0.8039468654434251
3.3988142013549805,0.0,-0.22381163872297782,0.11190581936148891,-0.5749872579001019,0.03384620285423037,0.8039468654434251
3.4034817218780518,0.0,-0.22381163872297782,0.11190581936148891,-0.5749872579001019,0.03384620285423037,0.8039468654434251
3.407179594039917,0.0,-0.22381163872297782,0.11190581936148891,-0.5749872579001019,0.03384620285423037,0.8039468654434251
3.4117236137390137,0.0,-0.22381163872297782,0.11190581936148891,-0.5749872579001019,0.03384620285423037,0.8039468654434251
3.4163787364959717,0.0,-0.22381163872297782,0.11190581936148891,-0.5749872579001019,0.03384620285423037,0.8039468654434251
3.4210710525512695,0.0,-0.22381163872297782,0.11190581936148891,-0.5749872579001019,0.03384620285423037,0.8039468654434251
3.4254584312438965,0.0,0.33571745808446674,0.11190581936148891,-0.5749872579001019,0.03384620285423037,0.8075305810397553
3.436009168624878,0.0,0.33571745808446674,0.11190581936148891,-0.5749872579001019,0.03384620285423037,0.8075305810397553
3.4406678676605225,0.0,0.33571745808446674,0.11190581936148891,-0.5749872579001019,0.03384620285423037,0.8075305810397553
3.445082187652588,0.0,0.33571745808446674,0.11190581936148891,-0.5749872579001019,0.03384620285423037,0.8075305810397553
3.4485552310943604,0.0,0.33571745808446674,0.11190581936148891,-0.5749872579001019,0.03384620285423037,0.8075305810397553
3.453265905380249,0.0,0.33571745808446674,0.11190581936148891,-0.5749872579001019,0.03384620285423037,0.8075305810397553
3.4569578170776367,0.0,0.33571745808446674,0.11190581936148891,-0.5749872579001019,0.03384620285423037,0.8039468654434251
3.4652092456817627,0.0,0.33571745808446674,0.11190581936148891,-0.5749872579001019,0.03384620285423037,0.8039468654434251
3.468791961669922,0.0,0.33571745808446674,0.11190581936148891,-0.5749872579001019,0.03384620285423037,0.8039468654434251
3.473317861557007,0.0,0.33571745808446674,0.11190581936148891,-0.5749872579001019,0.03384620285423037,0.8039468654434251
3.477100372314453,0.0,-0.11190581936148891,0.0,-0.5749872579001019,0.03384620285423037,0.8039468654434251
3.484846353530884,0.0,-0.11190581936148891,0.0,-0.5749872579001019,0.03384620285423037,0.8039468654434251
3.4885146617889404,0.0,-0.11190581936148891,0.0,-0.5789691641182466,0.03384620285423037,0.8039468654434251
3.496173620223999,0.0,-0.11190581936148891,0.0,-0.5789691641182466,0.03384620285423037,0.8039468654434251
3.50020432472229,0.0,-0.11190581936148891,0.0,-0.5789691641182466,0.03384620285423037,0.8039468654434251
3.5046308040618896,0.0,-0.11190581936148891,0.0,-0.5789691641182466,0.03384620285423037,0.8039468654434251
3.508288860321045,0.0,-0.11190581936148891,0.0,-0.5789691641182466,0.03384620285423037,0.8039468654434251
3.512810468673706,0.0,-0.11190581936148891,0.0,-0.5789691641182466,0.03384620285423037,0.8039468654434251
3.51684832572937,0.0,-0.11190581936148891,0.0,-0.5789691641182466,0.03384620285423037,0.8039468654434251
3.521556854248047,0.0,-0.11190581936148891,0.0,-0.5749872579001019,0.03384620285423037,0.8075305810397553
3.528196334838867,-0.11190581936148891,1.0071523742534003,-0.11190581936148891,-0.5749872579001019,0.03384620285423037,0.8075305810397553
3.5362110137939453,-0.11190581936148891,1.0071523742534003,-0.11190581936148891,-0.5749872579001019,0.03384620285423037,0.8075305810397553
3.5409536361694336,-0.11190581936148891,1.0071523742534003,-0.11190581936148891,-0.5749872579001019,0.03384620285423037,0.8075305810397553
3.5455336570739746,-0.11190581936148891,1.0071523742534003,-0.11190581936148891,-0.5749872579001019,0.03384620285423037,0.8075305810397553
3.548797845840454,-0.11190581936148891,1.0071523742534003,-0.11190581936148891,-0.5749872579001019,0.03384620285423037,0.8075305810397553
3.55330491065979,-0.11190581936148891,1.0071523742534003,-0.11190581936148891,-0.5749872579001019,0.03384620285423037,0.8075305810397553
3.558274507522583,-0.11190581936148891,1.0071523742534003,-0.11190581936148891,-0.5749872579001019,0.03384620285423037,0.8075305810397553
3.5627639293670654,-0.11190581936148891,1.0071523742534003,-0.11190581936148891,-0.5749872579001019,0.03384620285423037,0.8075305810397553
3.5667026042938232,-0.11190581936148891,1.0071523742534003,-0.11190581936148891,-0.5749872579001019,0.03384620285423037,0.8075305810397553
3.5712318420410156,-0.11190581936148891,1.0071523742534003,-0.11190581936148891,-0.5749872579001019,0.03384620285423037,0.8075305810397553
3.5758440494537354,-0.11190581936148891,-0.22381163872297782,-0.11190581936148891,-0.5749872579001019,0.03384620285423037,0.8075305810397553
3.5838730335235596,-0.11190581936148891,-0.22381163872297782,-0.11190581936148891,-0.5749872579001019,0.03384620285423037,0.8075305810397553
3.587763786315918,-0.11190581936148891,-0.22381163872297782,-0.11190581936148891,-0.5749872579001019,0.03384620285423037,0.8075305810397553
3.595662832260132,-0.11190581936148891,-0.22381163872297782,-0.11190581936148891,-0.5749872579001019,0.03384620285423037,0.8075305810397553
3.5996625423431396,-0.11190581936148891,-0.22381163872297782,-0.11190581936148891,-0.5749872579001019,0.03384620285423037,0.8075305810397553
3.604451894760132,-0.11190581936148891,-0.22381163872297782,-0.11190581936148891,-0.5749872579001019,0.03384620285423037,0.8075305810397553
3.607874631881714,-0.11190581936148891,-0.22381163872297782,-0.11190581936148891,-0.5749872579001019,0.03384620285423037,0.8075305810397553
3.6122660636901855,-0.11190581936148891,-0.22381163872297782,-0.11190581936148891,-0.5749872579001019,0.03384620285423037,0.8075305810397553
3.615973949432373,-0.11190581936148891,-0.22381163872297782,-0.11190581936148891,-0.5749872579001019,0.03384620285423037,0.8039468654434251
3.6239099502563477,-0.11190581936148891,-0.22381163872297782,-0.11190581936148891,-0.5749872579001019,0.03384620285423037,0.8039468654434251
3.627337694168091,0.11190581936148891,0.0,0.0,-0.5749872579001019,0.03384620285423037,0.8039468654434251
3.6352598667144775,0.11190581936148891,0.0,0.0,-0.5749872579001019,0.03384620285423037,0.8039468654434251
3.6398510932922363,0.11190581936148891,0.0,0.0,-0.5749872579001019,0.03384620285423037,0.8039468654434251
3.64459490776062,0.11190581936148891,0.0,0.0,-0.5749872579001019,0.03384620285423037,0.8039468654434251
3.64821720123291,0.11190581936148891,0.0,0.0,-0.5749872579001019,0.03384620285423037,0.8075305810397553
3.6560893058776855,0.11190581936148891,0.0,0.0,-0.5749872579001019,0.03384620285423037,0.8075305810397553
3.6604905128479004,0.11190581936148891,0.0,0.0,-0.5749872579001019,0.03384620285423037,0.8075305810397553
3.664804697036743,0.11190581936148891,0.0,0.0,-0.5749872579001019,0.03384620285423037,0.8075305810397553
3.6680333614349365,0.11190581936148891,0.0,0.0,-0.5749872579001019,0.03384620285423037,0.8075305810397553
3.672498941421509,0.11190581936148891,0.0,0.0,-0.5749872579001019,0.03384620285423037,0.8075305810397553
3.676234722137451,0.0,1.5666814710608448,0.0,-0.5749872579001019,0.03384620285423037,0.8075305810397553
3.6867566108703613,0.0,1.5666814710608448,0.0,-0.5749872579001019,0.03384620285423037,0.8075305810397553
3.6912572383880615,0.0,1.5666814710608448,0.0,-0.5749872579001019,0.03384620285423037,0.8075305810397553
3.695847749710083,0.0,1.5666814710608448,0.0,-0.5749872579001019,0.03384620285423037,0.8075305810397553
3.6999242305755615,0.0,1.5666814710608448,0.0,-0.5749872579001019,0.03384620285423037,0.8075305810397553
3.704561710357666,0.0,1.5666814710608448,0.0,-0.5749872579001019,0.03384620285423037,0.8075305810397553
3.708056688308716,0.0,1.5666814710608448,0.0,-0.5749872579001019,0.03384620285423037,0.8075305810397553
3.71244478225708,0.0,1.5666814710608448,0.0,-0.5789691641182466,0.03384620285423037,0.8039468654434251
3.7178335189819336,0.0,1.5666814710608448,0.0,-0.5789691641182466,0.03384620285423037,0.8039468654434251
3.7225940227508545,0.0,1.5666814710608448,0.0,-0.5789691641182466,0.03384620285423037,0.8039468654434251
3.726331949234009,0.11190581936148891,0.44762327744595565,0.0,-0.5789691641182466,0.03384620285423037,0.8039468654434251
3.733942747116089,0.11190581936148891,0.44762327744595565,0.0,-0.5789691641182466,0.03384620285423037,0.8039468654434251
3.737592935562134,0.11190581936148891,0.44762327744595565,0.0,-0.5789691641182466,0.03384620285423037,0.8039468654434251
3.742295980453491,0.11190581936148891,0.44762327744595565,0.0,-0.5789691641182466,0.03384620285423037,0.8039468654434251
3.7461841106414795,0.11190581936148891,0.44762327744595565,0.0,-0.5749872579001019,0.03384620285423037,0.8075305810397553
3.7535862922668457,0.11190581936148891,0.44762327744595565,0.0,-0.5749872579001019,0.03384620285423037,0.8075305810397553
3.7572906017303467,0.11190581936148891,0.44762327744595565,0.0,-0.5749872579001019,0.03384620285423037,0.8075305810397553
3.76198410987854,0.11190581936148891,0.44762327744595565,0.0,-0.5749872579001019,0.03384620285423037,0.8075305810397553
3.7660553455352783,0.11190581936148891,0.44762327744595565,0.0,-0.5749872579001019,0.03384620285423037,0.8075305810397553
3.7706143856048584,0.11190581936148891,0.44762327744595565,0.0,-0.5749872579001019,0.03384620285423037,0.8075305810397553
3.7749996185302734,0.11190581936148891,0.44762327744595565,0.0,-0.5749872579001019,0.03384620285423037,0.8039468654434251
3.7828497886657715,0.22381163872297782,0.44762327744595565,-0.11190581936148891,-0.5749872579001019,0.03384620285423037,0.8039468654434251
3.7861926555633545,0.22381163872297782,0.44762327744595565,-0.11190581936148891,-0.5749872579001019,0.03384620285423037,0.8039468654434251
3.790541410446167,0.22381163872297782,0.44762327744595565,-0.11190581936148891,-0.5749872579001019,0.03384620285423037,0.8039468654434251
3.7948899269104004,0.22381163872297782,0.44762327744595565,-0.11190581936148891,-0.5749872579001019,0.03384620285423037,0.8039468654434251
3.7985641956329346,0.22381163872297782,0.44762327744595565,-0.11190581936148891,-0.5749872579001019,0.03384620285423037,0.8039468654434251
3.8031699657440186,0.22381163872297782,0.44762327744595565,-0.11190581936148891,-0.5749872579001019,0.03384620285423037,0.8039468654434251
3.8066797256469727,0.22381163872297782,0.44762327744595565,-0.11190581936148891,-0.5749872579001019,0.03384620285423037,0.8039468654434251
3.8106164932250977,0.22381163872297782,0.44762327744595565,-0.11190581936148891,-0.5749872579001019,0.03384620285423037,0.8039468654434251
3.8172638416290283,0.22381163872297782,0.44762327744595565,-0.11190581936148891,-0.5749872579001019,0.03384620285423037,0.8039468654434251
3.821995258331299,0.22381163872297782,0.44762327744595565,-0.11190581936148891,-0.5749872579001019,0.03384620285423037,0.8039468654434251
3.8261797428131104,0.11190581936148891,-0.8952465548919113,0.0,-0.5749872579001019,0.03384620285423037,0.8039468654434251
3.8338708877563477,0.11190581936148891,-0.8952465548919113,0.0,-0.5749872579001019,0.03384620285423037,0.8039468654434251
3.8374218940734863,0.11190581936148891,-0.8952465548919113,0.0,-0.5749872579001019,0.03384620285423037,0.8039468654434251
3.8419504165649414,0.11190581936148891,-0.8952465548919113,0.0,-0.5789691641182466,0.03384620285423037,0.8075305810397553
3.8473851680755615,0.11190581936148891,-0.8952465548919113,0.0,-0.5789691641182466,0.03384620285423037,0.8075305810397553
3.8517472743988037,0.11190581936148891,-0.8952465548919113,0.0,-0.5789691641182466,0.03384620285423037,0.8075305810397553
3.8557283878326416,0.11190581936148891,-0.8952465548919113,0.0,-0.5789691641182466,0.03384620285423037,0.8075305810397553
3.860140562057495,0.11190581936148891,-0.8952465548919113,0.0,-0.5789691641182466,0.03384620285423037,0.8075305810397553
3.864550828933716,0.11190581936148891,-0.8952465548919113,0.0,-0.5789691641182466,0.03384620285423037,0.8075305810397553
3.8689937591552734,0.11190581936148891,-0.8952465548919113,0.0,-0.5789691641182466,0.03384620285423037,0.8075305810397553
3.8734965324401855,0.11190581936148891,0.44762327744595565,-0.11190581936148891,-0.5749872579001019,0.03384620285423037,0.8075305810397553
3.8839075565338135,0.11190581936148891,0.44762327744595565,-0.11190581936148891,-0.5749872579001019,0.03384620285423037,0.8075305810397553
3.8875672817230225,0.11190581936148891,0.44762327744595565,-0.11190581936148891,-0.5749872579001019,0.03384620285423037,0.8075305810397553
3.8920140266418457,0.11190581936148891,0.44762327744595565,-0.11190581936148891,-0.5749872579001019,0.03384620285423037,0.8075305810397553
3.89570951461792,0.11190581936148891,0.44762327744595565,-0.11190581936148891,-0.5749872579001019,0.03384620285423037,0.8075305810397553
3.899479389190674,0.11190581936148891,0.44762327744595565,-0.11190581936148891,-0.5749872579001019,0.03384620285423037,0.8075305810397553
3.9038498401641846,0.11190581936148891,0.44762327744595565,-0.11190581936148891,-0.5749872579001019,0.03384620285423037,0.8075305810397553
3.9069762229919434,0.11190581936148891,0.44762327744595565,-0.11190581936148891,-0.5905166921508664,-0.04818106523955148,0.7955848623853211
3.9144287109375,0.11190581936148891,0.44762327744595565,-0.11190581936148891,-0.5905166921508664,-0.04818106523955148,0.7955848623853211
3.9177663326263428,0.11190581936148891,0.44762327744595565,-0.11190581936148891,-0.5905166921508664,-0.04818106523955148,0.7955848623853211
3.922269344329834,0.11190581936148891,0.44762327744595565,-0.11190581936148891,-0.5905166921508664,-0.04818106523955148,0.7955848623853211
3.925967216491699,25.402620995057983,-9.064371368280602,-30.550288685686475,-0.5905166921508664,-0.04818106523955148,0.7955848623853211
3.934242010116577,25.402620995057983,-9.064371368280602,-30.550288685686475,-0.5905166921508664,-0.04818106523955148,0.7955848623853211
3.9377856254577637,25.402620995057983,-9.064371368280602,-30.550288685686475,-0.5514940112130479,0.1003440366972477,0.835802115188583
3.9455645084381104,25.402620995057983,-9.064371368280602,-30.550288685686475,-0.5514940112130479,0.1003440366972477,0.835802115188583
3.950314998626709,25.402620995057983,-9.064371368280602,-30.550288685686475,-0.5514940112130479,0.1003440366972477,0.835802115188583
3.954923629760742,25.402620995057983,-9.064371368280602,-30.550288685686475,-0.5514940112130479,0.1003440366972477,0.835802115188583
3.9596304893493652,25.402620995057983,-9.064371368280602,-30.550288685686475,-0.5514940112130479,0.1003440366972477,0.835802115188583
3.9640390872955322,25.402620995057983,-9.064371368280602,-30.550288685686475,-0.5514940112130479,0.1003440366972477,0.835802115188583
3.967329502105713,25.402620995057983,-9.064371368280602,-30.550288685686475,-0.5554759174311926,0.0573394495412844,0.8194762996941896
3.9735589027404785,25.402620995057983,-9.064371368280602,-30.550288685686475,-0.5554759174311926,0.0573394495412844,0.8194762996941896
3.977468252182007,33.34793416972369,-6.938160800412312,-10.966770297425914,-0.5554759174311926,0.0573394495412844,0.8194762996941896
3.9855079650878906,33.34793416972369,-6.938160800412312,-10.966770297425914,-0.5554759174311926,0.0573394495412844,0.8194762996941896
3.9901862144470215,33.34793416972369,-6.938160800412312,-10.966770297425914,-0.5554759174311926,0.0573394495412844,0.8194762996941896
3.99474835395813,33.34793416972369,-6.938160800412312,-10.966770297425914,-0.5554759174311926,0.0573394495412844,0.8194762996941896
3.9982309341430664,33.34793416972369,-6.938160800412312,-10.966770297425914,-0.5554759174311926,0.0573394495412844,0.8194762996941896
4.002690076828003,33.34793416972369,-6.938160800412312,-10.966770297425914,-0.5475121049949031,0.0573394495412844,0.8115124872579
4.007646560668945,33.34793416972369,-6.938160800412312,-10.966770297425914,-0.5475121049949031,0.0573394495412844,0.8115124872579
4.011735200881958,33.34793416972369,-6.938160800412312,-10.966770297425914,-0.5475121049949031,0.0573394495412844,0.8115124872579
4.015233755111694,33.34793416972369,-6.938160800412312,-10.966770297425914,-0.5475121049949031,0.0573394495412844,0.8115124872579
4.0193681716918945,33.34793416972369,-6.938160800412312,-10.966770297425914,-0.5475121049949031,0.0573394495412844,0.8115124872579
4.02350378036499,33.34793416972369,-6.938160800412312,-10.966770297425914,-0.5475121049949031,0.0573394495412844,0.8115124872579
4.026469707489014,9.28818300700358,-8.840559729557624,-2.685739664675734,-0.5475121049949031,0.0573394495412844,0.8115124872579
4.033997058868408,9.28818300700358,-8.840559729557624,-2.685739664675734,-0.5435301987767583,0.08839831804281345,0.8154943934760448
4.040452718734741,9.28818300700358,-8.840559729557624,-2.685739664675734,-0.5435301987767583,0.08839831804281345,0.8154943934760448
4.045022964477539,9.28818300700358,-8.840559729557624,-2.685739664675734,-0.5435301987767583,0.08839831804281345,0.8154943934760448
4.049821138381958,9.28818300700358,-8.840559729557624,-2.685739664675734,-0.5435301987767583,0.08839831804281345,0.8154943934760448
4.054684162139893,9.28818300700358,-8.840559729557624,-2.685739664675734,-0.5435301987767583,0.08839831804281345,0.8154943934760448
4.059628248214722,9.28818300700358,-8.840559729557624,-2.685739664675734,-0.5435301987767583,0.08839831804281345,0.8154943934760448
4.064468145370483,9.28818300700358,-8.840559729557624,-2.685739664675734,-0.5435301987767583,0.08839831804281345,0.8154943934760448
4.067901372909546,9.28818300700358,-8.840559729557624,-2.685739664675734,-0.5710053516819572,0.06490507135575943,0.8115124872579
4.075836420059204,10.631052839341447,-6.378631703604868,2.0143047485068006,-0.5710053516819572,0.06490507135575943,0.8115124872579
4.084108829498291,10.631052839341447,-6.378631703604868,2.0143047485068006,-0.5710053516819572,0.06490507135575943,0.8115124872579
4.087380647659302,10.631052839341447,-6.378631703604868,2.0143047485068006,-0.5710053516819572,0.06490507135575943,0.8115124872579
4.092062473297119,10.631052839341447,-6.378631703604868,2.0143047485068006,-0.5710053516819572,0.06490507135575943,0.8115124872579
4.095544815063477,10.631052839341447,-6.378631703604868,2.0143047485068006,-0.5475121049949031,0.05335754332313965,0.8314220183486238
4.103342771530151,10.631052839341447,-6.378631703604868,2.0143047485068006,-0.5475121049949031,0.05335754332313965,0.8314220183486238
4.106909990310669,10.631052839341447,-6.378631703604868,2.0143047485068006,-0.5475121049949031,0.05335754332313965,0.8314220183486238
4.111454248428345,10.631052839341447,-6.378631703604868,2.0143047485068006,-0.5475121049949031,0.05335754332313965,0.8314220183486238
4.115377426147461,10.631052839341447,-6.378631703604868,2.0143047485068006,-0.5475121049949031,0.05335754332313965,0.8314220183486238
4.119930982589722,10.631052839341447,-6.378631703604868,2.0143047485068006,-0.5475121049949031,0.05335754332313965,0.8314220183486238
4.124220371246338,10.631052839341447,-6.378631703604868,2.0143047485068006,-0.5475121049949031,0.05335754332313965,0.8314220183486238
4.128983974456787,29.655042130794563,-14.995379794439515,6.378631703604868,-0.5435301987767583,0.06490507135575943,0.8354039245667686
4.134923934936523,29.655042130794563,-14.995379794439515,6.378631703604868,-0.5435301987767583,0.06490507135575943,0.8354039245667686
4.139026403427124,29.655042130794563,-14.995379794439515,6.378631703604868,-0.5435301987767583,0.06490507135575943,0.8354039245667686
4.14307427406311,29.655042130794563,-14.995379794439515,6.378631703604868,-0.5435301987767583,0.06490507135575943,0.8354039245667686
4.146048069000244,29.655042130794563,-14.995379794439515,6.378631703604868,-0.5435301987767583,0.06490507135575943,0.8354039245667686
4.150186538696289,29.655042130794563,-14.995379794439515,6.378631703604868,-0.5435301987767583,0.06490507135575943,0.8354039245667686
4.154733419418335,29.655042130794563,-14.995379794439515,6.378631703604868,-0.5435301987767583,0.06490507135575943,0.8354039245667686
4.159199237823486,29.655042130794563,-14.995379794439515,6.378631703604868,-0.5435301987767583,0.06490507135575943,0.8354039245667686
4.162965297698975,29.655042130794563,-14.995379794439515,6.378631703604868,-0.5200369520897044,0.11587347094801223,0.8549152650356778
4.169603586196899,29.655042130794563,-14.995379794439515,6.378631703604868,-0.5200369520897044,0.11587347094801223,0.8549152650356778
4.174158096313477,52.93145255798426,21.150199859321404,24.059751162720115,-0.5200369520897044,0.11587347094801223,0.8549152650356778
4.181503534317017,52.93145255798426,21.150199859321404,24.059751162720115,-0.5200369520897044,0.11587347094801223,0.8549152650356778
4.185263633728027,52.93145255798426,21.150199859321404,24.059751162720115,-0.5200369520897044,0.11587347094801223,0.8549152650356778
4.189695835113525,52.93145255798426,21.150199859321404,24.059751162720115,-0.5200369520897044,0.11587347094801223,0.8549152650356778
4.194378852844238,52.93145255798426,21.150199859321404,24.059751162720115,-0.5670234454638124,0.16644367991845055,0.8624808868501529
4.2017011642456055,52.93145255798426,21.150199859321404,24.059751162720115,-0.5670234454638124,0.16644367991845055,0.8624808868501529
4.205193519592285,52.93145255798426,21.150199859321404,24.059751162720115,-0.5670234454638124,0.16644367991845055,0.8624808868501529
4.20962119102478,52.93145255798426,21.150199859321404,24.059751162720115,-0.5670234454638124,0.16644367991845055,0.8624808868501529
4.214139223098755,52.93145255798426,21.150199859321404,24.059751162720115,-0.5670234454638124,0.16644367991845055,0.8624808868501529
4.21842885017395,52.93145255798426,21.150199859321404,24.059751162720115,-0.5670234454638124,0.16644367991845055,0.8624808868501529
4.222910165786743,52.93145255798426,21.150199859321404,24.059751162720115,-0.5670234454638124,0.16644367991845055,0.8624808868501529
4.226677656173706,7.385784077858268,-5.483385148712957,-3.0214571227602005,-0.5359645769622834,0.11985537716615698,0.8234582059123343
4.2364068031311035,7.385784077858268,-5.483385148712957,-3.0214571227602005,-0.5359645769622834,0.11985537716615698,0.8234582059123343
4.240763902664185,7.385784077858268,-5.483385148712957,-3.0214571227602005,-0.5359645769622834,0.11985537716615698,0.8234582059123343
4.245165824890137,7.385784077858268,-5.483385148712957,-3.0214571227602005,-0.5359645769622834,0.11985537716615698,0.8234582059123343
4.249769449234009,7.385784077858268,-5.483385148712957,-3.0214571227602005,-0.5359645769622834,0.11985537716615698,0.8234582059123343
4.254115104675293,7.385784077858268,-5.483385148712957,-3.0214571227602005,-0.5359645769622834,0.11985537716615698,0.8234582059123343
4.258119583129883,7.385784077858268,-5.483385148712957,-3.0214571227602005,-0.5005256116207951,0.1353848114169215,0.788815621814475
4.265069484710693,7.385784077858268,-5.483385148712957,-3.0214571227602005,-0.5005256116207951,0.1353848114169215,0.788815621814475
4.269599914550781,7.385784077858268,-5.483385148712957,-3.0214571227602005,-0.5005256116207951,0.1353848114169215,0.788815621814475
4.274020195007324,-5.931008426158912,-10.742958658702936,10.29533538125698,-0.5005256116207951,0.1353848114169215,0.788815621814475
4.281449317932129,-5.931008426158912,-10.742958658702936,10.29533538125698,-0.5005256116207951,0.1353848114169215,0.788815621814475
4.2852911949157715,-5.931008426158912,-10.742958658702936,10.29533538125698,-0.5005256116207951,0.1353848114169215,0.788815621814475
4.29003381729126,-5.931008426158912,-10.742958658702936,10.29533538125698,-0.5395482925586136,0.1624617737003058,0.7999649592252803
4.296505928039551,-5.931008426158912,-10.742958658702936,10.29533538125698,-0.5395482925586136,0.1624617737003058,0.7999649592252803
4.300843238830566,-5.931008426158912,-10.742958658702936,10.29533538125698,-0.5395482925586136,0.1624617737003058,0.7999649592252803
4.304746866226196,-5.931008426158912,-10.742958658702936,10.29533538125698,-0.5395482925586136,0.1624617737003058,0.7999649592252803
4.30914306640625,-5.931008426158912,-10.742958658702936,10.29533538125698,-0.5395482925586136,0.1624617737003058,0.7999649592252803
4.3136231899261475,-5.931008426158912,-10.742958658702936,10.29533538125698,-0.5395482925586136,0.1624617737003058,0.7999649592252803
4.316917657852173,-5.931008426158912,-10.742958658702936,10.29533538125698,-0.5395482925586136,0.1624617737003058,0.7999649592252803
4.321442127227783,-5.931008426158912,-10.742958658702936,10.29533538125698,-0.598480504587156,0.06888697757390418,0.8154943934760448
4.326753377914429,6.602443342327846,5.483385148712957,-14.32394487827058,-0.598480504587156,0.06888697757390418,0.8154943934760448
4.334705114364624,6.602443342327846,5.483385148712957,-14.32394487827058,-0.598480504587156,0.06888697757390418,0.8154943934760448
4.339247465133667,6.602443342327846,5.483385148712957,-14.32394487827058,-0.598480504587156,0.06888697757390418,0.8154943934760448
4.343751907348633,6.602443342327846,5.483385148712957,-14.32394487827058,-0.598480504587156,0.06888697757390418,0.8154943934760448
4.347064256668091,6.602443342327846,5.483385148712957,-14.32394487827058,-0.598480504587156,0.06888697757390418,0.8154943934760448
4.351618051528931,6.602443342327846,5.483385148712957,-14.32394487827058,-0.598480504587156,0.06888697757390418,0.8154943934760448
4.355104923248291,6.602443342327846,5.483385148712957,-14.32394487827058,-0.5319826707441386,0.11587347094801223,0.8278383027522935
4.362833023071289,6.602443342327846,5.483385148712957,-14.32394487827058,-0.5319826707441386,0.11587347094801223,0.8278383027522935
4.366151332855225,6.602443342327846,5.483385148712957,-14.32394487827058,-0.5319826707441386,0.11587347094801223,0.8278383027522935
4.3704822063446045,6.602443342327846,5.483385148712957,-14.32394487827058,-0.5319826707441386,0.11587347094801223,0.8278383027522935
4.374885559082031,14.771568155716537,-1.1190581936148891,-9.400088826365069,-0.5319826707441386,0.11587347094801223,0.8278383027522935
4.382713317871094,14.771568155716537,-1.1190581936148891,-9.400088826365069,-0.5319826707441386,0.11587347094801223,0.8278383027522935
4.386303663253784,14.771568155716537,-1.1190581936148891,-9.400088826365069,-0.5359645769622834,0.18197311416921508,0.8588971712538226
4.392864227294922,14.771568155716537,-1.1190581936148891,-9.400088826365069,-0.5359645769622834,0.18197311416921508,0.8588971712538226
4.396381378173828,14.771568155716537,-1.1190581936148891,-9.400088826365069,-0.5359645769622834,0.18197311416921508,0.8588971712538226
4.401348829269409,14.771568155716537,-1.1190581936148891,-9.400088826365069,-0.5359645769622834,0.18197311416921508,0.8588971712538226
4.4048614501953125,14.771568155716537,-1.1190581936148891,-9.400088826365069,-0.5359645769622834,0.18197311416921508,0.8588971712538226
4.409390687942505,14.771568155716537,-1.1190581936148891,-9.400088826365069,-0.5359645769622834,0.18197311416921508,0.8588971712538226
4.4138877391815186,14.771568155716537,-1.1190581936148891,-9.400088826365069,-0.5359645769622834,0.18197311416921508,0.8588971712538226
4.418047189712524,14.771568155716537,-1.1190581936148891,-9.400088826365069,-0.5240188583078491,0.11985537716615698,0.8354039245667686
4.424675703048706,-3.469080400206156,0.7833407355304224,-24.395468620804582,-0.5240188583078491,0.11985537716615698,0.8354039245667686
4.432240724563599,-3.469080400206156,0.7833407355304224,-24.395468620804582,-0.5240188583078491,0.11985537716615698,0.8354039245667686
4.435544490814209,-3.469080400206156,0.7833407355304224,-24.395468620804582,-0.5240188583078491,0.11985537716615698,0.8354039245667686
4.440073728561401,-3.469080400206156,0.7833407355304224,-24.395468620804582,-0.5240188583078491,0.11985537716615698,0.8354039245667686
4.444643020629883,-3.469080400206156,0.7833407355304224,-24.395468620804582,-0.5240188583078491,0.11985537716615698,0.8354039245667686
4.449389219284058,-3.469080400206156,0.7833407355304224,-24.395468620804582,-0.4654848369011213,0.11587347094801223,0.8429695463812436
4.456034898757935,-3.469080400206156,0.7833407355304224,-24.395468620804582,-0.4654848369011213,0.11587347094801223,0.8429695463812436
4.460726976394653,-3.469080400206156,0.7833407355304224,-24.395468620804582,-0.4654848369011213,0.11587347094801223,0.8429695463812436
4.464579343795776,-3.469080400206156,0.7833407355304224,-24.395468620804582,-0.4654848369011213,0.11587347094801223,0.8429695463812436
4.469152212142944,-3.469080400206156,0.7833407355304224,-24.395468620804582,-0.4654848369011213,0.11587347094801223,0.8429695463812436
4.473581790924072,-10.631052839341447,-6.378631703604868,6.15482006488189,-0.4654848369011213,0.11587347094801223,0.8429695463812436
4.480230331420898,-10.631052839341447,-6.378631703604868,6.15482006488189,-0.5435301987767583,0.1469323394495413,0.8389876401630988
4.4862060546875,-10.631052839341447,-6.378631703604868,6.15482006488189,-0.5435301987767583,0.1469323394495413,0.8389876401630988
4.490888357162476,-10.631052839341447,-6.378631703604868,6.15482006488189,-0.5435301987767583,0.1469323394495413,0.8389876401630988
4.49471640586853,-10.631052839341447,-6.378631703604868,6.15482006488189,-0.5435301987767583,0.1469323394495413,0.8389876401630988
4.4992029666900635,-10.631052839341447,-6.378631703604868,6.15482006488189,-0.5435301987767583,0.1469323394495413,0.8389876401630988
4.5038371086120605,-10.631052839341447,-6.378631703604868,6.15482006488189,-0.5435301987767583,0.1469323394495413,0.8389876401630988
4.508627414703369,-10.631052839341447,-6.378631703604868,6.15482006488189,-0.5435301987767583,0.1469323394495413,0.8389876401630988
4.513122797012329,-10.631052839341447,-6.378631703604868,6.15482006488189,-0.5435301987767583,0.1469323394495413,0.8389876401630988
4.516716003417969,-10.631052839341447,-6.378631703604868,6.15482006488189,-0.5630415392456677,0.09636213047910296,0.8274401121304791
4.524573802947998,-19.135895110814605,-6.602443342327846,-11.750111032956335,-0.5630415392456677,0.09636213047910296,0.8274401121304791
4.532236814498901,-19.135895110814605,-6.602443342327846,-11.750111032956335,-0.5630415392456677,0.09636213047910296,0.8274401121304791
4.535822868347168,-19.135895110814605,-6.602443342327846,-11.750111032956335,-0.5630415392456677,0.09636213047910296,0.8274401121304791
4.540190696716309,-19.135895110814605,-6.602443342327846,-11.750111032956335,-0.5630415392456677,0.09636213047910296,0.8274401121304791
4.544582843780518,-19.135895110814605,-6.602443342327846,-11.750111032956335,-0.5630415392456677,0.09636213047910296,0.8274401121304791
4.548039674758911,-19.135895110814605,-6.602443342327846,-11.750111032956335,-0.5200369520897044,0.0923802242609582,0.8154943934760448
4.55493950843811,-19.135895110814605,-6.602443342327846,-11.750111032956335,-0.5200369520897044,0.0923802242609582,0.8154943934760448
4.5594494342803955,-19.135895110814605,-6.602443342327846,-11.750111032956335,-0.5200369520897044,0.0923802242609582,0.8154943934760448
4.563831567764282,-19.135895110814605,-6.602443342327846,-11.750111032956335,-0.5200369520897044,0.0923802242609582,0.8154943934760448
4.568338871002197,-19.135895110814605,-6.602443342327846,-11.750111032956335,-0.5200369520897044,0.0923802242609582,0.8154943934760448
4.572844982147217,-19.135895110814605,-6.602443342327846,-11.750111032956335,-0.5200369520897044,0.0923802242609582,0.8154943934760448
4.576231241226196,-33.79555744716965,-22.493069691659272,1.0071523742534003,-0.516453236493374,0.09636213047910296,0.8314220183486238
4.5858025550842285,-33.79555744716965,-22.493069691659272,1.0071523742534003,-0.516453236493374,0.09636213047910296,0.8314220183486238
4.590446710586548,-33.79555744716965,-22.493069691659272,1.0071523742534003,-0.516453236493374,0.09636213047910296,0.8314220183486238
4.594279766082764,-33.79555744716965,-22.493069691659272,1.0071523742534003,-0.516453236493374,0.09636213047910296,0.8314220183486238
4.598701477050781,-33.79555744716965,-22.493069691659272,1.0071523742534003,-0.516453236493374,0.09636213047910296,0.8314220183486238
4.603029012680054,-33.79555744716965,-22.493069691659272,1.0071523742534003,-0.516453236493374,0.09636213047910296,0.8314220183486238
4.606510400772095,-33.79555744716965,-22.493069691659272,1.0071523742534003,-0.516453236493374,0.09636213047910296,0.8314220183486238
4.61090350151062,-33.79555744716965,-22.493069691659272,1.0071523742534003,-0.5084894240570845,0.08839831804281345,0.8234582059123343
4.616000175476074,-33.79555744716965,-22.493069691659272,1.0071523742534003,-0.5084894240570845,0.08839831804281345,0.8234582059123343
4.620832920074463,-33.79555744716965,-22.493069691659272,1.0071523742534003,-0.5084894240570845,0.08839831804281345,0.8234582059123343
4.624676704406738,-16.562061265500358,-12.30964012976378,-18.352554375284182,-0.5084894240570845,0.08839831804281345,0.8234582059123343
4.632790803909302,-16.562061265500358,-12.30964012976378,-18.352554375284182,-0.5084894240570845,0.08839831804281345,0.8234582059123343
4.636439800262451,-16.562061265500358,-12.30964012976378,-18.352554375284182,-0.5084894240570845,0.08839831804281345,0.8234582059123343
4.640873432159424,-16.562061265500358,-12.30964012976378,-18.352554375284182,-0.48101427115188583,0.05335754332313965,0.835802115188583
4.6458210945129395,-16.562061265500358,-12.30964012976378,-18.352554375284182,-0.48101427115188583,0.05335754332313965,0.835802115188583
4.6503167152404785,-16.562061265500358,-12.30964012976378,-18.352554375284182,-0.48101427115188583,0.05335754332313965,0.835802115188583
4.654442548751831,-16.562061265500358,-12.30964012976378,-18.352554375284182,-0.48101427115188583,0.05335754332313965,0.835802115188583
4.659107446670532,-16.562061265500358,-12.30964012976378,-18.352554375284182,-0.48101427115188583,0.05335754332313965,0.835802115188583
4.663578271865845,-16.562061265500358,-12.30964012976378,-18.352554375284182,-0.48101427115188583,0.05335754332313965,0.835802115188583
4.667584419250488,-16.562061265500358,-12.30964012976378,-18.352554375284182,-0.48101427115188583,0.05335754332313965,0.835802115188583
4.672012567520142,-16.562061265500358,-12.30964012976378,-18.352554375284182,-0.48101427115188583,0.05335754332313965,0.835802115188583
4.675674200057983,-5.483385148712957,-11.526299394233359,-22.493069691659272,-0.4499554026503568,0.10392775229357798,0.8780103211009174
4.685790777206421,-5.483385148712957,-11.526299394233359,-22.493069691659272,-0.4499554026503568,0.10392775229357798,0.8780103211009174
4.690354585647583,-5.483385148712957,-11.526299394233359,-22.493069691659272,-0.4499554026503568,0.10392775229357798,0.8780103211009174
4.6945881843566895,-5.483385148712957,-11.526299394233359,-22.493069691659272,-0.4499554026503568,0.10392775229357798,0.8780103211009174
4.699127197265625,-5.483385148712957,-11.526299394233359,-22.493069691659272,-0.4499554026503568,0.10392775229357798,0.8780103211009174
4.703675031661987,-5.483385148712957,-11.526299394233359,-22.493069691659272,-0.4889780835881753,0.0573394495412844,0.8895578491335372
